submission_id,question,response1,startDate,context_picture,sentence_order,domain,experiment_id,problems,enjoyment,item,botresponse,option2,option1,understand,text,target,age,comments,education,target_size,sentences,languages,sex,np,RT,context,sentence2,trial_number,startTime,fairprice,congruence,response2,sentence1,trial_name
948,How well does each of the sentences describe it? (Click on the slider to provide a rating),0,Fri Nov 29 2019 14:33:34 GMT-0600 (Central Standard Time),NA,NA,NA,27,NA,2,NA,Barbara,very well,very bad,yes,Imagine you see this chair.,warmup/purple-chair.png,25,NA,graduated_college,NA,NA,English,male,NA,7975,NA,The chair is blue.,1,1575059614061,0.8,NA,0,The chair is yellow.,custom_warmup
948,How well does each of the sentences describe it? (Click on the slider to provide a rating),100,Fri Nov 29 2019 14:33:34 GMT-0600 (Central Standard Time),NA,NA,NA,27,NA,2,NA,Barbara,very well,very bad,yes,Imagine you see this basketball.,warmup/basketball.png,25,NA,graduated_college,NA,NA,English,male,NA,4719,NA,The basketball is green.,2,1575059614061,0.8,NA,0,The basketball is orange.,custom_warmup
948,How well does each of these sentences describe it? (Click on the slider to provide a rating),96,Fri Nov 29 2019 14:33:34 GMT-0600 (Central Standard Time),images/tree-parade-basic.png,0|1,trees,27,NA,2,bonsai,Barbara,very well,very bad,yes,You also see this bonsai.,warmup/bonsai.jpg,25,NA,graduated_college,1,<b>That's a small bonsai.</b>|<b>That bonsai is small.</b>,English,male,0,8898,You and your friend see the following:,1,1,1575059614061,0.8,0,100,0,custom_slider1
948,How well does each of these sentences describe it? (Click on the slider to provide a rating),48,Fri Nov 29 2019 14:33:34 GMT-0600 (Central Standard Time),images/flower-parade-basic.png,0|1,flowers,27,NA,2,sunflower,Barbara,very well,very bad,yes,You also see this sunflower.,warmup/sunflower.png,25,NA,graduated_college,0,<b>That's a big flower.</b>|<b>That flower is big.</b>,English,male,1,9279,You and your friend see the following:,1,2,1575059614061,0.8,0,48,0,custom_slider1
948,How well does each of these sentences describe it? (Click on the slider to provide a rating),100,Fri Nov 29 2019 14:33:34 GMT-0600 (Central Standard Time),images/dog-parade-basic.png,0|1,dogs1,27,NA,2,chihuahua,Barbara,very well,very bad,yes,You also see this chihuahua.,warmup/chihuahua.jpg,25,NA,graduated_college,1,<b>That's a small dog.</b>|<b>That dog is small.</b>,English,male,1,7031,You and your friend see the following:,1,3,1575059614061,0.8,0,100,0,custom_slider1
948,How well does each of these sentences describe it? (Click on the slider to provide a rating),31,Fri Nov 29 2019 14:33:34 GMT-0600 (Central Standard Time),images/dog-parade-basic2.png,NA,dogs2,27,NA,2,great dane,Barbara,very well,very bad,yes,You also see this great dane.,warmup/great-dane.jpg,25,NA,graduated_college,0,<b>That's a big great dane.</b>|<b>That great dane is big.</b>,English,male,0,9816,You and your friend see the following:,1,1,1575059614061,0.8,0,100,0,custom_slider2
948,How well does each of these sentences describe it? (Click on the slider to provide a rating),25,Fri Nov 29 2019 14:33:34 GMT-0600 (Central Standard Time),images/bird-parade-basic.png,0|1,birds,27,NA,2,hummingbird,Barbara,very well,very bad,yes,You also see this hummingbird.,warmup/colibri.jpg,25,NA,graduated_college,1,<b>That's a small hummingbird.</b>|<b>That hummingbird is small.</b>,English,male,0,7800,You and your friend see the following:,1,2,1575059614061,0.8,0,100,0,custom_slider2
948,How well does each of these sentences describe it? (Click on the slider to provide a rating),100,Fri Nov 29 2019 14:33:34 GMT-0600 (Central Standard Time),images/fish-parade-basic.png,0|1,fish,27,NA,2,swordfish,Barbara,very well,very bad,yes,You also see this swordfish.,warmup/swordfish.jpg,25,NA,graduated_college,0,<b>That's a big fish.</b>|<b>That fish is big.</b>,English,male,1,7056,You and your friend see the following:,1,3,1575059614061,0.8,0,100,0,custom_slider2
954,How well does each of the sentences describe it? (Click on the slider to provide a rating),0,Fri Nov 29 2019 12:34:46 GMT-0800 (Pacific Standard Time),NA,NA,NA,27,No,2,NA,Susan,very well,very bad,yes,Imagine you see this chair.,warmup/purple-chair.png,29,Good,graduated_college,NA,NA,English,male,NA,9528,NA,The chair is blue.,1,1575059686789,NA,NA,100,The chair is yellow.,custom_warmup
954,How well does each of the sentences describe it? (Click on the slider to provide a rating),100,Fri Nov 29 2019 12:34:46 GMT-0800 (Pacific Standard Time),NA,NA,NA,27,No,2,NA,Susan,very well,very bad,yes,Imagine you see this basketball.,warmup/basketball.png,29,Good,graduated_college,NA,NA,English,male,NA,5966,NA,The basketball is green.,2,1575059686789,NA,NA,0,The basketball is orange.,custom_warmup
954,How well does each of these sentences describe it? (Click on the slider to provide a rating),30,Fri Nov 29 2019 12:34:46 GMT-0800 (Pacific Standard Time),images/tree-parade-basic.png,1|0,trees,27,No,2,sequoia,Susan,very well,very bad,yes,You also see this sequoia.,warmup/sequoia.png,29,Good,graduated_college,0,<b>That's a big sequoia.</b>|<b>That sequoia is big.</b>,English,male,0,12170,You and your friend see the following:,0,1,1575059686789,NA,0,77,1,custom_slider1
954,How well does each of these sentences describe it? (Click on the slider to provide a rating),58,Fri Nov 29 2019 12:34:46 GMT-0800 (Pacific Standard Time),images/dog-parade-basic2.png,NA,dogs2,27,No,2,pug,Susan,very well,very bad,yes,You also see this pug.,warmup/pug.jpg,29,Good,graduated_college,1,<b>That's a small dog.</b>|<b>That dog is small.</b>,English,male,1,3373,You and your friend see the following:,0,2,1575059686789,NA,0,43,1,custom_slider1
954,How well does each of these sentences describe it? (Click on the slider to provide a rating),56,Fri Nov 29 2019 12:34:46 GMT-0800 (Pacific Standard Time),images/dog-parade-basic.png,1|0,dogs1,27,No,2,chihuahua,Susan,very well,very bad,yes,You also see this chihuahua.,warmup/chihuahua.jpg,29,Good,graduated_college,1,<b>That's a small chihuahua.</b>|<b>That chihuahua is small.</b>,English,male,0,12200,You and your friend see the following:,0,3,1575059686789,NA,0,44,1,custom_slider1
954,How well does each of these sentences describe it? (Click on the slider to provide a rating),51,Fri Nov 29 2019 12:34:46 GMT-0800 (Pacific Standard Time),images/bird-parade-basic.png,1|0,birds,27,No,2,eagle,Susan,very well,very bad,yes,You also see this eagle.,warmup/eagle.jpg,29,Good,graduated_college,0,<b>That's a big bird.</b>|<b>That bird is big.</b>,English,male,1,4975,You and your friend see the following:,0,1,1575059686789,NA,0,74,1,custom_slider2
954,How well does each of these sentences describe it? (Click on the slider to provide a rating),44,Fri Nov 29 2019 12:34:46 GMT-0800 (Pacific Standard Time),images/flower-parade-basic.png,1|0,flowers,27,No,2,dandelion,Susan,very well,very bad,yes,You also see this dandelion.,warmup/dandelion.jpg,29,Good,graduated_college,1,<b>That's a small flower.</b>|<b>That flower is small.</b>,English,male,1,3001,You and your friend see the following:,0,2,1575059686789,NA,0,77,1,custom_slider2
954,How well does each of these sentences describe it? (Click on the slider to provide a rating),61,Fri Nov 29 2019 12:34:46 GMT-0800 (Pacific Standard Time),images/fish-parade-basic.png,1|0,fish,27,No,2,swordfish,Susan,very well,very bad,yes,You also see this swordfish.,warmup/swordfish.jpg,29,Good,graduated_college,0,<b>That's a big swordfish.</b>|<b>That swordfish is big.</b>,English,male,0,2622,You and your friend see the following:,0,3,1575059686789,NA,0,37,1,custom_slider2
965,How well does each of the sentences describe it? (Click on the slider to provide a rating),0,Fri Nov 29 2019 14:36:52 GMT-0600 (Central Standard Time),NA,NA,NA,27,No,2,NA,mary,very well,very bad,yes,Imagine you see this chair.,warmup/purple-chair.png,39,No comments at the current time.,some_college,NA,NA,English,female,NA,8408,NA,The chair is blue.,1,1575059812837,0.9,NA,0,The chair is yellow.,custom_warmup
965,How well does each of the sentences describe it? (Click on the slider to provide a rating),100,Fri Nov 29 2019 14:36:52 GMT-0600 (Central Standard Time),NA,NA,NA,27,No,2,NA,mary,very well,very bad,yes,Imagine you see this basketball.,warmup/basketball.png,39,No comments at the current time.,some_college,NA,NA,English,female,NA,8909,NA,The basketball is green.,2,1575059812837,0.9,NA,0,The basketball is orange.,custom_warmup
965,How well does each of these sentences describe it? (Click on the slider to provide a rating),100,Fri Nov 29 2019 14:36:52 GMT-0600 (Central Standard Time),images/tree-parade-basic.png,1|0,trees,27,No,2,bonsai,mary,very well,very bad,yes,You also see this bonsai.,warmup/bonsai.jpg,39,No comments at the current time.,some_college,1,<b>That's a small bonsai.</b>|<b>That bonsai is small.</b>,English,female,0,25991,You and your friend see the following:,0,1,1575059812837,0.9,0,51,1,custom_slider1
965,How well does each of these sentences describe it? (Click on the slider to provide a rating),100,Fri Nov 29 2019 14:36:52 GMT-0600 (Central Standard Time),images/fish-parade-basic.png,1|0,fish,27,No,2,goldfish,mary,very well,very bad,yes,You also see this goldfish.,warmup/goldfish.png,39,No comments at the current time.,some_college,1,<b>That's a small fish.</b>|<b>That fish is small.</b>,English,female,1,11016,You and your friend see the following:,0,2,1575059812837,0.9,0,75,1,custom_slider1
965,How well does each of these sentences describe it? (Click on the slider to provide a rating),100,Fri Nov 29 2019 14:36:52 GMT-0600 (Central Standard Time),images/flower-parade-basic.png,1|0,flowers,27,No,2,sunflower,mary,very well,very bad,yes,You also see this sunflower.,warmup/sunflower.png,39,No comments at the current time.,some_college,0,<b>That's a big flower.</b>|<b>That flower is big.</b>,English,female,1,10456,You and your friend see the following:,0,3,1575059812837,0.9,0,100,1,custom_slider1
965,How well does each of these sentences describe it? (Click on the slider to provide a rating),100,Fri Nov 29 2019 14:36:52 GMT-0600 (Central Standard Time),images/dog-parade-basic2.png,NA,dogs2,27,No,2,pug,mary,very well,very bad,yes,You also see this pug.,warmup/pug.jpg,39,No comments at the current time.,some_college,1,<b>That's a small pug.</b>|<b>That pug is small.</b>,English,female,0,9431,You and your friend see the following:,0,1,1575059812837,0.9,0,54,1,custom_slider2
965,How well does each of these sentences describe it? (Click on the slider to provide a rating),100,Fri Nov 29 2019 14:36:52 GMT-0600 (Central Standard Time),images/bird-parade-basic.png,1|0,birds,27,No,2,eagle,mary,very well,very bad,yes,You also see this eagle.,warmup/eagle.jpg,39,No comments at the current time.,some_college,0,<b>That's a big eagle.</b>|<b>That eagle is big.</b>,English,female,0,7448,You and your friend see the following:,0,2,1575059812837,0.9,0,55,1,custom_slider2
965,How well does each of these sentences describe it? (Click on the slider to provide a rating),100,Fri Nov 29 2019 14:36:52 GMT-0600 (Central Standard Time),images/dog-parade-basic.png,1|0,dogs1,27,No,2,doberman,mary,very well,very bad,yes,You also see this doberman.,warmup/doberman.png,39,No comments at the current time.,some_college,0,<b>That's a big dog.</b>|<b>That dog is big.</b>,English,female,1,8552,You and your friend see the following:,0,3,1575059812837,0.9,0,73,1,custom_slider2
950,How well does each of the sentences describe it? (Click on the slider to provide a rating),0,Fri Nov 29 2019 14:32:46 GMT-0600 (Central Standard Time),NA,NA,NA,27,NA,1,NA,sarah,very well,very bad,yes,Imagine you see this chair.,warmup/purple-chair.png,32,NA,some_college,NA,NA,English,male,NA,15122,NA,The chair is blue.,1,1575059566503,0.6,NA,100,The chair is yellow.,custom_warmup
950,How well does each of the sentences describe it? (Click on the slider to provide a rating),100,Fri Nov 29 2019 14:32:46 GMT-0600 (Central Standard Time),NA,NA,NA,27,NA,1,NA,sarah,very well,very bad,yes,Imagine you see this basketball.,warmup/basketball.png,32,NA,some_college,NA,NA,English,male,NA,9117,NA,The basketball is green.,2,1575059566503,0.6,NA,0,The basketball is orange.,custom_warmup
950,How well does each of these sentences describe it? (Click on the slider to provide a rating),67,Fri Nov 29 2019 14:32:46 GMT-0600 (Central Standard Time),images/dog-parade-basic2.png,NA,dogs2,27,NA,1,great dane,sarah,very well,very bad,yes,You also see this great dane.,warmup/great-dane.jpg,32,NA,some_college,0,<b>That's a big dog.</b>|<b>That dog is big.</b>,English,male,1,39941,You and your friend see the following:,0,1,1575059566503,0.6,0,68,1,custom_slider1
950,How well does each of these sentences describe it? (Click on the slider to provide a rating),61,Fri Nov 29 2019 14:32:46 GMT-0600 (Central Standard Time),images/bird-parade-basic.png,1|0,birds,27,NA,1,eagle,sarah,very well,very bad,yes,You also see this eagle.,warmup/eagle.jpg,32,NA,some_college,0,<b>That's a big eagle.</b>|<b>That eagle is big.</b>,English,male,0,19232,You and your friend see the following:,0,2,1575059566503,0.6,0,61,1,custom_slider1
950,How well does each of these sentences describe it? (Click on the slider to provide a rating),77,Fri Nov 29 2019 14:32:46 GMT-0600 (Central Standard Time),images/fish-parade-basic.png,1|0,fish,27,NA,1,goldfish,sarah,very well,very bad,yes,You also see this goldfish.,warmup/goldfish.png,32,NA,some_college,1,<b>That's a small goldfish.</b>|<b>That goldfish is small.</b>,English,male,0,13860,You and your friend see the following:,0,3,1575059566503,0.6,0,70,1,custom_slider1
950,How well does each of these sentences describe it? (Click on the slider to provide a rating),89,Fri Nov 29 2019 14:32:46 GMT-0600 (Central Standard Time),images/tree-parade-basic.png,1|0,trees,27,NA,1,bonsai,sarah,very well,very bad,yes,You also see this bonsai.,warmup/bonsai.jpg,32,NA,some_college,1,<b>That's a small tree.</b>|<b>That tree is small.</b>,English,male,1,17265,You and your friend see the following:,0,1,1575059566503,0.6,0,85,1,custom_slider2
950,How well does each of these sentences describe it? (Click on the slider to provide a rating),82,Fri Nov 29 2019 14:32:46 GMT-0600 (Central Standard Time),images/dog-parade-basic.png,1|0,dogs1,27,NA,1,chihuahua,sarah,very well,very bad,yes,You also see this chihuahua.,warmup/chihuahua.jpg,32,NA,some_college,1,<b>That's a small dog.</b>|<b>That dog is small.</b>,English,male,1,14407,You and your friend see the following:,0,2,1575059566503,0.6,0,81,1,custom_slider2
950,How well does each of these sentences describe it? (Click on the slider to provide a rating),67,Fri Nov 29 2019 14:32:46 GMT-0600 (Central Standard Time),images/flower-parade-basic.png,1|0,flowers,27,NA,1,sunflower,sarah,very well,very bad,yes,You also see this sunflower.,warmup/sunflower.png,32,NA,some_college,0,<b>That's a big sunflower.</b>|<b>That sunflower is big.</b>,English,male,0,11656,You and your friend see the following:,0,3,1575059566503,0.6,0,66,1,custom_slider2
956,How well does each of the sentences describe it? (Click on the slider to provide a rating),100,Fri Nov 29 2019 14:37:03 GMT-0600 (Central Standard Time),NA,NA,NA,27,NA,NA,NA,jessica,very well,very bad,yes,Imagine you see this basketball.,warmup/basketball.png,NA,NA,NA,NA,NA,english,NA,NA,2932,NA,The basketball is green.,1,1575059823956,NA,NA,0,The basketball is orange.,custom_warmup
956,How well does each of the sentences describe it? (Click on the slider to provide a rating),0,Fri Nov 29 2019 14:37:03 GMT-0600 (Central Standard Time),NA,NA,NA,27,NA,NA,NA,jessica,very well,very bad,yes,Imagine you see this chair.,warmup/purple-chair.png,NA,NA,NA,NA,NA,english,NA,NA,3537,NA,The chair is blue.,2,1575059823956,NA,NA,0,The chair is yellow.,custom_warmup
956,How well does each of these sentences describe it? (Click on the slider to provide a rating),100,Fri Nov 29 2019 14:37:03 GMT-0600 (Central Standard Time),images/tree-parade-basic.png,0|1,trees,27,NA,NA,bonsai,jessica,very well,very bad,yes,You also see this bonsai.,warmup/bonsai.jpg,NA,NA,NA,1,<b>That's a small bonsai.</b>|<b>That bonsai is small.</b>,english,NA,0,2991,You and your friend see the following:,1,1,1575059823956,NA,0,100,0,custom_slider1
956,How well does each of these sentences describe it? (Click on the slider to provide a rating),100,Fri Nov 29 2019 14:37:03 GMT-0600 (Central Standard Time),images/fish-parade-basic.png,0|1,fish,27,NA,NA,goldfish,jessica,very well,very bad,yes,You also see this goldfish.,warmup/goldfish.png,NA,NA,NA,1,<b>That's a small fish.</b>|<b>That fish is small.</b>,english,NA,1,2871,You and your friend see the following:,1,2,1575059823956,NA,0,100,0,custom_slider1
956,How well does each of these sentences describe it? (Click on the slider to provide a rating),48,Fri Nov 29 2019 14:37:03 GMT-0600 (Central Standard Time),images/dog-parade-basic.png,0|1,dogs1,27,NA,NA,doberman,jessica,very well,very bad,yes,You also see this doberman.,warmup/doberman.png,NA,NA,NA,0,<b>That's a big dog.</b>|<b>That dog is big.</b>,english,NA,1,5087,You and your friend see the following:,1,3,1575059823956,NA,0,79,0,custom_slider1
956,How well does each of these sentences describe it? (Click on the slider to provide a rating),32,Fri Nov 29 2019 14:37:03 GMT-0600 (Central Standard Time),images/dog-parade-basic2.png,NA,dogs2,27,NA,NA,great dane,jessica,very well,very bad,yes,You also see this great dane.,warmup/great-dane.jpg,NA,NA,NA,0,<b>That's a big great dane.</b>|<b>That great dane is big.</b>,english,NA,0,4761,You and your friend see the following:,1,1,1575059823956,NA,0,54,0,custom_slider2
956,How well does each of these sentences describe it? (Click on the slider to provide a rating),50,Fri Nov 29 2019 14:37:03 GMT-0600 (Central Standard Time),images/bird-parade-basic.png,0|1,birds,27,NA,NA,hummingbird,jessica,very well,very bad,yes,You also see this hummingbird.,warmup/colibri.jpg,NA,NA,NA,1,<b>That's a small hummingbird.</b>|<b>That hummingbird is small.</b>,english,NA,0,5452,You and your friend see the following:,1,2,1575059823956,NA,0,94,0,custom_slider2
956,How well does each of these sentences describe it? (Click on the slider to provide a rating),7,Fri Nov 29 2019 14:37:03 GMT-0600 (Central Standard Time),images/flower-parade-basic.png,0|1,flowers,27,NA,NA,sunflower,jessica,very well,very bad,yes,You also see this sunflower.,warmup/sunflower.png,NA,NA,NA,0,<b>That's a big flower.</b>|<b>That flower is big.</b>,english,NA,1,4721,You and your friend see the following:,1,3,1575059823956,NA,0,10,0,custom_slider2
961,How well does each of the sentences describe it? (Click on the slider to provide a rating),0,Fri Nov 29 2019 14:34:31 GMT-0600 (Central Standard Time),NA,NA,NA,27,NA,1,NA,linda,very well,very bad,yes,Imagine you see this chair.,warmup/purple-chair.png,25,NA,NA,NA,NA,English,male,NA,11703,NA,The chair is blue.,1,1575059671348,1.88,NA,1,The chair is yellow.,custom_warmup
961,How well does each of the sentences describe it? (Click on the slider to provide a rating),82,Fri Nov 29 2019 14:34:31 GMT-0600 (Central Standard Time),NA,NA,NA,27,NA,1,NA,linda,very well,very bad,yes,Imagine you see this basketball.,warmup/basketball.png,25,NA,NA,NA,NA,English,male,NA,19050,NA,The basketball is green.,2,1575059671348,1.88,NA,0,The basketball is orange.,custom_warmup
961,How well does each of these sentences describe it? (Click on the slider to provide a rating),100,Fri Nov 29 2019 14:34:31 GMT-0600 (Central Standard Time),images/dog-parade-basic.png,0|1,dogs1,27,NA,1,chihuahua,linda,very well,very bad,yes,You also see this chihuahua.,warmup/chihuahua.jpg,25,NA,NA,1,<b>That's a small chihuahua.</b>|<b>That chihuahua is small.</b>,English,male,0,41947,You and your friend see the following:,1,1,1575059671348,1.88,0,0,0,custom_slider1
961,How well does each of these sentences describe it? (Click on the slider to provide a rating),100,Fri Nov 29 2019 14:34:31 GMT-0600 (Central Standard Time),images/fish-parade-basic.png,0|1,fish,27,NA,1,goldfish,linda,very well,very bad,yes,You also see this goldfish.,warmup/goldfish.png,25,NA,NA,1,<b>That's a small goldfish.</b>|<b>That goldfish is small.</b>,English,male,0,25502,You and your friend see the following:,1,2,1575059671348,1.88,0,0,0,custom_slider1
961,How well does each of these sentences describe it? (Click on the slider to provide a rating),95,Fri Nov 29 2019 14:34:31 GMT-0600 (Central Standard Time),images/flower-parade-basic.png,0|1,flowers,27,NA,1,sunflower,linda,very well,very bad,yes,You also see this sunflower.,warmup/sunflower.png,25,NA,NA,0,<b>That's a big flower.</b>|<b>That flower is big.</b>,English,male,1,10987,You and your friend see the following:,1,3,1575059671348,1.88,0,0,0,custom_slider1
961,How well does each of these sentences describe it? (Click on the slider to provide a rating),100,Fri Nov 29 2019 14:34:31 GMT-0600 (Central Standard Time),images/tree-parade-basic.png,0|1,trees,27,NA,1,sequoia,linda,very well,very bad,yes,You also see this sequoia.,warmup/sequoia.png,25,NA,NA,0,<b>That's a big tree.</b>|<b>That tree is big.</b>,English,male,1,15278,You and your friend see the following:,1,1,1575059671348,1.88,0,0,0,custom_slider2
961,How well does each of these sentences describe it? (Click on the slider to provide a rating),100,Fri Nov 29 2019 14:34:31 GMT-0600 (Central Standard Time),images/dog-parade-basic2.png,NA,dogs2,27,NA,1,pug,linda,very well,very bad,yes,You also see this pug.,warmup/pug.jpg,25,NA,NA,1,<b>That's a small dog.</b>|<b>That dog is small.</b>,English,male,1,13436,You and your friend see the following:,1,2,1575059671348,1.88,0,51,0,custom_slider2
961,How well does each of these sentences describe it? (Click on the slider to provide a rating),100,Fri Nov 29 2019 14:34:31 GMT-0600 (Central Standard Time),images/bird-parade-basic.png,0|1,birds,27,NA,1,eagle,linda,very well,very bad,yes,You also see this eagle.,warmup/eagle.jpg,25,NA,NA,0,<b>That's a big eagle.</b>|<b>That eagle is big.</b>,English,male,0,8084,You and your friend see the following:,1,3,1575059671348,1.88,0,3,0,custom_slider2
951,How well does each of the sentences describe it? (Click on the slider to provide a rating),100,Fri Nov 29 2019 15:33:06 GMT-0500 (Eastern Standard Time),NA,NA,NA,27,No.,1,NA,elizabeth,very well,very bad,yes,Imagine you see this basketball.,warmup/basketball.png,31,NA,some_college,NA,NA,English,male,NA,7329,NA,The basketball is green.,1,1575059586069,0.8,NA,0,The basketball is orange.,custom_warmup
951,How well does each of the sentences describe it? (Click on the slider to provide a rating),0,Fri Nov 29 2019 15:33:06 GMT-0500 (Eastern Standard Time),NA,NA,NA,27,No.,1,NA,elizabeth,very well,very bad,yes,Imagine you see this chair.,warmup/purple-chair.png,31,NA,some_college,NA,NA,English,male,NA,7094,NA,The chair is blue.,2,1575059586069,0.8,NA,49,The chair is yellow.,custom_warmup
951,How well does each of these sentences describe it? (Click on the slider to provide a rating),88,Fri Nov 29 2019 15:33:06 GMT-0500 (Eastern Standard Time),images/dog-parade-basic2.png,NA,dogs2,27,No.,1,pug,elizabeth,very well,very bad,yes,You also see this pug.,warmup/pug.jpg,31,NA,some_college,1,<b>That's a small pug.</b>|<b>That pug is small.</b>,English,male,0,35240,You and your friend see the following:,1,1,1575059586069,0.8,0,90,0,custom_slider1
951,How well does each of these sentences describe it? (Click on the slider to provide a rating),84,Fri Nov 29 2019 15:33:06 GMT-0500 (Eastern Standard Time),images/tree-parade-basic.png,0|1,trees,27,No.,1,bonsai,elizabeth,very well,very bad,yes,You also see this bonsai.,warmup/bonsai.jpg,31,NA,some_college,1,<b>That's a small bonsai.</b>|<b>That bonsai is small.</b>,English,male,0,20406,You and your friend see the following:,1,2,1575059586069,0.8,0,83,0,custom_slider1
951,How well does each of these sentences describe it? (Click on the slider to provide a rating),53,Fri Nov 29 2019 15:33:06 GMT-0500 (Eastern Standard Time),images/fish-parade-basic.png,0|1,fish,27,No.,1,swordfish,elizabeth,very well,very bad,yes,You also see this swordfish.,warmup/swordfish.jpg,31,NA,some_college,0,<b>That's a big swordfish.</b>|<b>That swordfish is big.</b>,English,male,0,15843,You and your friend see the following:,1,3,1575059586069,0.8,0,51,0,custom_slider1
951,How well does each of these sentences describe it? (Click on the slider to provide a rating),95,Fri Nov 29 2019 15:33:06 GMT-0500 (Eastern Standard Time),images/dog-parade-basic.png,0|1,dogs1,27,No.,1,chihuahua,elizabeth,very well,very bad,yes,You also see this chihuahua.,warmup/chihuahua.jpg,31,NA,some_college,1,<b>That's a small dog.</b>|<b>That dog is small.</b>,English,male,1,12389,You and your friend see the following:,1,1,1575059586069,0.8,0,97,0,custom_slider2
951,How well does each of these sentences describe it? (Click on the slider to provide a rating),61,Fri Nov 29 2019 15:33:06 GMT-0500 (Eastern Standard Time),images/bird-parade-basic.png,0|1,birds,27,No.,1,eagle,elizabeth,very well,very bad,yes,You also see this eagle.,warmup/eagle.jpg,31,NA,some_college,0,<b>That's a big bird.</b>|<b>That bird is big.</b>,English,male,1,13811,You and your friend see the following:,1,2,1575059586069,0.8,0,62,0,custom_slider2
951,How well does each of these sentences describe it? (Click on the slider to provide a rating),14,Fri Nov 29 2019 15:33:06 GMT-0500 (Eastern Standard Time),images/flower-parade-basic.png,0|1,flowers,27,No.,1,sunflower,elizabeth,very well,very bad,yes,You also see this sunflower.,warmup/sunflower.png,31,NA,some_college,0,<b>That's a big flower.</b>|<b>That flower is big.</b>,English,male,1,15209,You and your friend see the following:,1,3,1575059586069,0.8,0,14,0,custom_slider2
957,How well does each of the sentences describe it? (Click on the slider to provide a rating),0,Fri Nov 29 2019 15:34:19 GMT-0500 (Eastern Standard Time),NA,NA,NA,27,No problems,2,NA,Jennifer,very well,very bad,yes,Imagine you see this chair.,warmup/purple-chair.png,67,NA,NA,NA,NA,english,female,NA,16328,NA,The chair is blue.,1,1575059659871,80,NA,15,The chair is yellow.,custom_warmup
957,How well does each of the sentences describe it? (Click on the slider to provide a rating),100,Fri Nov 29 2019 15:34:19 GMT-0500 (Eastern Standard Time),NA,NA,NA,27,No problems,2,NA,Jennifer,very well,very bad,yes,Imagine you see this basketball.,warmup/basketball.png,67,NA,NA,NA,NA,english,female,NA,7028,NA,The basketball is green.,2,1575059659871,80,NA,0,The basketball is orange.,custom_warmup
957,How well does each of these sentences describe it? (Click on the slider to provide a rating),100,Fri Nov 29 2019 15:34:19 GMT-0500 (Eastern Standard Time),images/flower-parade-basic.png,1|0,flowers,27,No problems,2,sunflower,Jennifer,very well,very bad,yes,You also see this sunflower.,warmup/sunflower.png,67,NA,NA,0,<b>That's a big flower.</b>|<b>That flower is big.</b>,english,female,1,37443,You and your friend see the following:,0,1,1575059659871,80,0,100,1,custom_slider1
957,How well does each of these sentences describe it? (Click on the slider to provide a rating),100,Fri Nov 29 2019 15:34:19 GMT-0500 (Eastern Standard Time),images/dog-parade-basic2.png,NA,dogs2,27,No problems,2,great dane,Jennifer,very well,very bad,yes,You also see this great dane.,warmup/great-dane.jpg,67,NA,NA,0,<b>That's a big great dane.</b>|<b>That great dane is big.</b>,english,female,0,23561,You and your friend see the following:,0,2,1575059659871,80,0,100,1,custom_slider1
957,How well does each of these sentences describe it? (Click on the slider to provide a rating),100,Fri Nov 29 2019 15:34:19 GMT-0500 (Eastern Standard Time),images/bird-parade-basic.png,1|0,birds,27,No problems,2,hummingbird,Jennifer,very well,very bad,yes,You also see this hummingbird.,warmup/colibri.jpg,67,NA,NA,1,<b>That's a small hummingbird.</b>|<b>That hummingbird is small.</b>,english,female,0,11275,You and your friend see the following:,0,3,1575059659871,80,0,100,1,custom_slider1
957,How well does each of these sentences describe it? (Click on the slider to provide a rating),100,Fri Nov 29 2019 15:34:19 GMT-0500 (Eastern Standard Time),images/dog-parade-basic.png,1|0,dogs1,27,No problems,2,doberman,Jennifer,very well,very bad,yes,You also see this doberman.,warmup/doberman.png,67,NA,NA,0,<b>That's a big dog.</b>|<b>That dog is big.</b>,english,female,1,30207,You and your friend see the following:,0,1,1575059659871,80,0,100,1,custom_slider2
957,How well does each of these sentences describe it? (Click on the slider to provide a rating),100,Fri Nov 29 2019 15:34:19 GMT-0500 (Eastern Standard Time),images/fish-parade-basic.png,1|0,fish,27,No problems,2,goldfish,Jennifer,very well,very bad,yes,You also see this goldfish.,warmup/goldfish.png,67,NA,NA,1,<b>That's a small goldfish.</b>|<b>That goldfish is small.</b>,english,female,0,14065,You and your friend see the following:,0,2,1575059659871,80,0,100,1,custom_slider2
957,How well does each of these sentences describe it? (Click on the slider to provide a rating),100,Fri Nov 29 2019 15:34:19 GMT-0500 (Eastern Standard Time),images/tree-parade-basic.png,1|0,trees,27,No problems,2,bonsai,Jennifer,very well,very bad,yes,You also see this bonsai.,warmup/bonsai.jpg,67,NA,NA,1,<b>That's a small tree.</b>|<b>That tree is small.</b>,english,female,1,8583,You and your friend see the following:,0,3,1575059659871,80,0,100,1,custom_slider2
959,How well does each of the sentences describe it? (Click on the slider to provide a rating),0,Fri Nov 29 2019 12:36:05 GMT-0800 (Pacific Standard Time),NA,NA,NA,27,no issues,1,NA,barbara,very well,very bad,yes,Imagine you see this chair.,warmup/purple-chair.png,35,NA,some_college,NA,NA,english,male,NA,11497,NA,The chair is blue.,1,1575059765122,0.8,NA,0,The chair is yellow.,custom_warmup
959,How well does each of the sentences describe it? (Click on the slider to provide a rating),100,Fri Nov 29 2019 12:36:05 GMT-0800 (Pacific Standard Time),NA,NA,NA,27,no issues,1,NA,barbara,very well,very bad,yes,Imagine you see this basketball.,warmup/basketball.png,35,NA,some_college,NA,NA,english,male,NA,6968,NA,The basketball is green.,2,1575059765122,0.8,NA,0,The basketball is orange.,custom_warmup
959,How well does each of these sentences describe it? (Click on the slider to provide a rating),88,Fri Nov 29 2019 12:36:05 GMT-0800 (Pacific Standard Time),images/fish-parade-basic.png,0|1,fish,27,no issues,1,goldfish,barbara,very well,very bad,yes,You also see this goldfish.,warmup/goldfish.png,35,NA,some_college,1,<b>That's a small goldfish.</b>|<b>That goldfish is small.</b>,english,male,0,16522,You and your friend see the following:,1,1,1575059765122,0.8,0,100,0,custom_slider1
959,How well does each of these sentences describe it? (Click on the slider to provide a rating),68,Fri Nov 29 2019 12:36:05 GMT-0800 (Pacific Standard Time),images/bird-parade-basic.png,0|1,birds,27,no issues,1,eagle,barbara,very well,very bad,yes,You also see this eagle.,warmup/eagle.jpg,35,NA,some_college,0,<b>That's a big bird.</b>|<b>That bird is big.</b>,english,male,1,10945,You and your friend see the following:,1,2,1575059765122,0.8,0,57,0,custom_slider1
959,How well does each of these sentences describe it? (Click on the slider to provide a rating),74,Fri Nov 29 2019 12:36:05 GMT-0800 (Pacific Standard Time),images/flower-parade-basic.png,0|1,flowers,27,no issues,1,sunflower,barbara,very well,very bad,yes,You also see this sunflower.,warmup/sunflower.png,35,NA,some_college,0,<b>That's a big flower.</b>|<b>That flower is big.</b>,english,male,1,12082,You and your friend see the following:,1,3,1575059765122,0.8,0,63,0,custom_slider1
959,How well does each of these sentences describe it? (Click on the slider to provide a rating),95,Fri Nov 29 2019 12:36:05 GMT-0800 (Pacific Standard Time),images/dog-parade-basic2.png,NA,dogs2,27,no issues,1,pug,barbara,very well,very bad,yes,You also see this pug.,warmup/pug.jpg,35,NA,some_college,1,<b>That's a small pug.</b>|<b>That pug is small.</b>,english,male,0,14618,You and your friend see the following:,1,1,1575059765122,0.8,0,88,0,custom_slider2
959,How well does each of these sentences describe it? (Click on the slider to provide a rating),93,Fri Nov 29 2019 12:36:05 GMT-0800 (Pacific Standard Time),images/dog-parade-basic.png,0|1,dogs1,27,no issues,1,chihuahua,barbara,very well,very bad,yes,You also see this chihuahua.,warmup/chihuahua.jpg,35,NA,some_college,1,<b>That's a small chihuahua.</b>|<b>That chihuahua is small.</b>,english,male,0,8913,You and your friend see the following:,1,2,1575059765122,0.8,0,96,0,custom_slider2
959,How well does each of these sentences describe it? (Click on the slider to provide a rating),98,Fri Nov 29 2019 12:36:05 GMT-0800 (Pacific Standard Time),images/tree-parade-basic.png,0|1,trees,27,no issues,1,sequoia,barbara,very well,very bad,yes,You also see this sequoia.,warmup/sequoia.png,35,NA,some_college,0,<b>That's a big tree.</b>|<b>That tree is big.</b>,english,male,1,11753,You and your friend see the following:,1,3,1575059765122,0.8,0,100,0,custom_slider2
952,How well does each of the sentences describe it? (Click on the slider to provide a rating),27,Fri Nov 29 2019 14:32:37 GMT-0600 (Central Standard Time),NA,NA,NA,27,NA,1,NA,barbara,very well,very bad,yes,Imagine you see this chair.,warmup/purple-chair.png,36,NA,graduated_college,NA,NA,English,male,NA,9092,NA,The chair is blue.,1,1575059557912,0.8,NA,38,The chair is yellow.,custom_warmup
952,How well does each of the sentences describe it? (Click on the slider to provide a rating),57,Fri Nov 29 2019 14:32:37 GMT-0600 (Central Standard Time),NA,NA,NA,27,NA,1,NA,barbara,very well,very bad,yes,Imagine you see this basketball.,warmup/basketball.png,36,NA,graduated_college,NA,NA,English,male,NA,3610,NA,The basketball is green.,2,1575059557912,0.8,NA,33,The basketball is orange.,custom_warmup
952,How well does each of these sentences describe it? (Click on the slider to provide a rating),42,Fri Nov 29 2019 14:32:37 GMT-0600 (Central Standard Time),images/dog-parade-basic.png,0|1,dogs1,27,NA,1,chihuahua,barbara,very well,very bad,yes,You also see this chihuahua.,warmup/chihuahua.jpg,36,NA,graduated_college,1,<b>That's a small chihuahua.</b>|<b>That chihuahua is small.</b>,English,male,0,8535,You and your friend see the following:,1,1,1575059557912,0.8,0,56,0,custom_slider1
952,How well does each of these sentences describe it? (Click on the slider to provide a rating),41,Fri Nov 29 2019 14:32:37 GMT-0600 (Central Standard Time),images/bird-parade-basic.png,0|1,birds,27,NA,1,eagle,barbara,very well,very bad,yes,You also see this eagle.,warmup/eagle.jpg,36,NA,graduated_college,0,<b>That's a big bird.</b>|<b>That bird is big.</b>,English,male,1,6732,You and your friend see the following:,1,2,1575059557912,0.8,0,54,0,custom_slider1
952,How well does each of these sentences describe it? (Click on the slider to provide a rating),46,Fri Nov 29 2019 14:32:37 GMT-0600 (Central Standard Time),images/fish-parade-basic.png,0|1,fish,27,NA,1,swordfish,barbara,very well,very bad,yes,You also see this swordfish.,warmup/swordfish.jpg,36,NA,graduated_college,0,<b>That's a big fish.</b>|<b>That fish is big.</b>,English,male,1,4159,You and your friend see the following:,1,3,1575059557912,0.8,0,31,0,custom_slider1
952,How well does each of these sentences describe it? (Click on the slider to provide a rating),44,Fri Nov 29 2019 14:32:37 GMT-0600 (Central Standard Time),images/tree-parade-basic.png,0|1,trees,27,NA,1,bonsai,barbara,very well,very bad,yes,You also see this bonsai.,warmup/bonsai.jpg,36,NA,graduated_college,1,<b>That's a small bonsai.</b>|<b>That bonsai is small.</b>,English,male,0,4122,You and your friend see the following:,1,1,1575059557912,0.8,0,55,0,custom_slider2
952,How well does each of these sentences describe it? (Click on the slider to provide a rating),31,Fri Nov 29 2019 14:32:37 GMT-0600 (Central Standard Time),images/flower-parade-basic.png,0|1,flowers,27,NA,1,dandelion,barbara,very well,very bad,yes,You also see this dandelion.,warmup/dandelion.jpg,36,NA,graduated_college,1,<b>That's a small flower.</b>|<b>That flower is small.</b>,English,male,1,4923,You and your friend see the following:,1,2,1575059557912,0.8,0,47,0,custom_slider2
952,How well does each of these sentences describe it? (Click on the slider to provide a rating),46,Fri Nov 29 2019 14:32:37 GMT-0600 (Central Standard Time),images/dog-parade-basic2.png,NA,dogs2,27,NA,1,great dane,barbara,very well,very bad,yes,You also see this great dane.,warmup/great-dane.jpg,36,NA,graduated_college,0,<b>That's a big great dane.</b>|<b>That great dane is big.</b>,English,male,0,6748,You and your friend see the following:,1,3,1575059557912,0.8,0,53,0,custom_slider2
966,How well does each of the sentences describe it? (Click on the slider to provide a rating),91,Fri Nov 29 2019 15:33:39 GMT-0500 (Eastern Standard Time),NA,NA,NA,27,NA,2,NA,susan,very well,very bad,yes,Imagine you see this basketball.,warmup/basketball.png,37,NA,graduated_college,NA,NA,English,male,NA,11157,NA,The basketball is green.,1,1575059619095,0.85,NA,0,The basketball is orange.,custom_warmup
966,How well does each of the sentences describe it? (Click on the slider to provide a rating),0,Fri Nov 29 2019 15:33:39 GMT-0500 (Eastern Standard Time),NA,NA,NA,27,NA,2,NA,susan,very well,very bad,yes,Imagine you see this chair.,warmup/purple-chair.png,37,NA,graduated_college,NA,NA,English,male,NA,13345,NA,The chair is blue.,2,1575059619095,0.85,NA,36,The chair is yellow.,custom_warmup
966,How well does each of these sentences describe it? (Click on the slider to provide a rating),61,Fri Nov 29 2019 15:33:39 GMT-0500 (Eastern Standard Time),images/dog-parade-basic.png,1|0,dogs1,27,NA,2,chihuahua,susan,very well,very bad,yes,You also see this chihuahua.,warmup/chihuahua.jpg,37,NA,graduated_college,1,<b>That's a small chihuahua.</b>|<b>That chihuahua is small.</b>,English,male,0,17030,You and your friend see the following:,0,1,1575059619095,0.85,0,31,1,custom_slider1
966,How well does each of these sentences describe it? (Click on the slider to provide a rating),97,Fri Nov 29 2019 15:33:39 GMT-0500 (Eastern Standard Time),images/fish-parade-basic.png,1|0,fish,27,NA,2,swordfish,susan,very well,very bad,yes,You also see this swordfish.,warmup/swordfish.jpg,37,NA,graduated_college,0,<b>That's a big fish.</b>|<b>That fish is big.</b>,English,male,1,11038,You and your friend see the following:,0,2,1575059619095,0.85,0,100,1,custom_slider1
966,How well does each of these sentences describe it? (Click on the slider to provide a rating),86,Fri Nov 29 2019 15:33:39 GMT-0500 (Eastern Standard Time),images/tree-parade-basic.png,1|0,trees,27,NA,2,bonsai,susan,very well,very bad,yes,You also see this bonsai.,warmup/bonsai.jpg,37,NA,graduated_college,1,<b>That's a small bonsai.</b>|<b>That bonsai is small.</b>,English,male,0,13424,You and your friend see the following:,0,3,1575059619095,0.85,0,38,1,custom_slider1
966,How well does each of these sentences describe it? (Click on the slider to provide a rating),90,Fri Nov 29 2019 15:33:39 GMT-0500 (Eastern Standard Time),images/bird-parade-basic.png,1|0,birds,27,NA,2,eagle,susan,very well,very bad,yes,You also see this eagle.,warmup/eagle.jpg,37,NA,graduated_college,0,<b>That's a big bird.</b>|<b>That bird is big.</b>,English,male,1,12122,You and your friend see the following:,0,1,1575059619095,0.85,0,97,1,custom_slider2
966,How well does each of these sentences describe it? (Click on the slider to provide a rating),97,Fri Nov 29 2019 15:33:39 GMT-0500 (Eastern Standard Time),images/flower-parade-basic.png,1|0,flowers,27,NA,2,dandelion,susan,very well,very bad,yes,You also see this dandelion.,warmup/dandelion.jpg,37,NA,graduated_college,1,<b>That's a small flower.</b>|<b>That flower is small.</b>,English,male,1,6488,You and your friend see the following:,0,2,1575059619095,0.85,0,94,1,custom_slider2
966,How well does each of these sentences describe it? (Click on the slider to provide a rating),95,Fri Nov 29 2019 15:33:39 GMT-0500 (Eastern Standard Time),images/dog-parade-basic2.png,NA,dogs2,27,NA,2,great dane,susan,very well,very bad,yes,You also see this great dane.,warmup/great-dane.jpg,37,NA,graduated_college,0,<b>That's a big great dane.</b>|<b>That great dane is big.</b>,English,male,0,10669,You and your friend see the following:,0,3,1575059619095,0.85,0,65,1,custom_slider2
994,How well does each of the sentences describe it? (Click on the slider to provide a rating),100,Fri Nov 29 2019 14:48:35 GMT-0600 (Central Standard Time),NA,NA,NA,27,None. Everything went well.,2,NA,mary,very well,very bad,yes,Imagine you see this basketball.,warmup/basketball.png,52,NA,some_college,NA,NA,English,female,NA,13338,NA,The basketball is green.,1,1575060515784,0.8,NA,0,The basketball is orange.,custom_warmup
994,How well does each of the sentences describe it? (Click on the slider to provide a rating),0,Fri Nov 29 2019 14:48:35 GMT-0600 (Central Standard Time),NA,NA,NA,27,None. Everything went well.,2,NA,mary,very well,very bad,yes,Imagine you see this chair.,warmup/purple-chair.png,52,NA,some_college,NA,NA,English,female,NA,17158,NA,The chair is blue.,2,1575060515784,0.8,NA,0,The chair is yellow.,custom_warmup
994,How well does each of these sentences describe it? (Click on the slider to provide a rating),100,Fri Nov 29 2019 14:48:35 GMT-0600 (Central Standard Time),images/dog-parade-basic.png,0|1,dogs1,27,None. Everything went well.,2,doberman,mary,very well,very bad,yes,You also see this doberman.,warmup/doberman.png,52,NA,some_college,0,<b>That's a big doberman.</b>|<b>That doberman is big.</b>,English,female,0,52616,You and your friend see the following:,1,1,1575060515784,0.8,0,100,0,custom_slider1
994,How well does each of these sentences describe it? (Click on the slider to provide a rating),97,Fri Nov 29 2019 14:48:35 GMT-0600 (Central Standard Time),images/dog-parade-basic2.png,NA,dogs2,27,None. Everything went well.,2,pug,mary,very well,very bad,yes,You also see this pug.,warmup/pug.jpg,52,NA,some_college,1,<b>That's a small pug.</b>|<b>That pug is small.</b>,English,female,0,23851,You and your friend see the following:,1,2,1575060515784,0.8,0,97,0,custom_slider1
994,How well does each of these sentences describe it? (Click on the slider to provide a rating),100,Fri Nov 29 2019 14:48:35 GMT-0600 (Central Standard Time),images/fish-parade-basic.png,0|1,fish,27,None. Everything went well.,2,goldfish,mary,very well,very bad,yes,You also see this goldfish.,warmup/goldfish.png,52,NA,some_college,1,<b>That's a small fish.</b>|<b>That fish is small.</b>,English,female,1,9831,You and your friend see the following:,1,3,1575060515784,0.8,0,100,0,custom_slider1
994,How well does each of these sentences describe it? (Click on the slider to provide a rating),90,Fri Nov 29 2019 14:48:35 GMT-0600 (Central Standard Time),images/bird-parade-basic.png,0|1,birds,27,None. Everything went well.,2,eagle,mary,very well,very bad,yes,You also see this eagle.,warmup/eagle.jpg,52,NA,some_college,0,<b>That's a big eagle.</b>|<b>That eagle is big.</b>,English,female,0,32862,You and your friend see the following:,1,1,1575060515784,0.8,0,90,0,custom_slider2
994,How well does each of these sentences describe it? (Click on the slider to provide a rating),90,Fri Nov 29 2019 14:48:35 GMT-0600 (Central Standard Time),images/tree-parade-basic.png,0|1,trees,27,None. Everything went well.,2,sequoia,mary,very well,very bad,yes,You also see this sequoia.,warmup/sequoia.png,52,NA,some_college,0,<b>That's a big tree.</b>|<b>That tree is big.</b>,English,female,1,15413,You and your friend see the following:,1,2,1575060515784,0.8,0,90,0,custom_slider2
994,How well does each of these sentences describe it? (Click on the slider to provide a rating),88,Fri Nov 29 2019 14:48:35 GMT-0600 (Central Standard Time),images/flower-parade-basic.png,0|1,flowers,27,None. Everything went well.,2,dandelion,mary,very well,very bad,yes,You also see this dandelion.,warmup/dandelion.jpg,52,NA,some_college,1,<b>That's a small flower.</b>|<b>That flower is small.</b>,English,female,1,24568,You and your friend see the following:,1,3,1575060515784,0.8,0,88,0,custom_slider2
953,How well does each of the sentences describe it? (Click on the slider to provide a rating),100,Fri Nov 29 2019 14:35:49 GMT-0600 (Central Standard Time),NA,NA,NA,27,NA,NA,NA,susan,very well,very bad,yes,Imagine you see this basketball.,warmup/basketball.png,NA,NA,NA,NA,NA,english,NA,NA,2943,NA,The basketball is green.,1,1575059749666,NA,NA,0,The basketball is orange.,custom_warmup
953,How well does each of the sentences describe it? (Click on the slider to provide a rating),0,Fri Nov 29 2019 14:35:49 GMT-0600 (Central Standard Time),NA,NA,NA,27,NA,NA,NA,susan,very well,very bad,yes,Imagine you see this chair.,warmup/purple-chair.png,NA,NA,NA,NA,NA,english,NA,NA,3232,NA,The chair is blue.,2,1575059749666,NA,NA,0,The chair is yellow.,custom_warmup
953,How well does each of these sentences describe it? (Click on the slider to provide a rating),100,Fri Nov 29 2019 14:35:49 GMT-0600 (Central Standard Time),images/bird-parade-basic.png,1|0,birds,27,NA,NA,hummingbird,susan,very well,very bad,yes,You also see this hummingbird.,warmup/colibri.jpg,NA,NA,NA,1,<b>That's a small bird.</b>|<b>That bird is small.</b>,english,NA,1,3084,You and your friend see the following:,0,1,1575059749666,NA,0,100,1,custom_slider1
953,How well does each of these sentences describe it? (Click on the slider to provide a rating),100,Fri Nov 29 2019 14:35:49 GMT-0600 (Central Standard Time),images/dog-parade-basic2.png,NA,dogs2,27,NA,NA,great dane,susan,very well,very bad,yes,You also see this great dane.,warmup/great-dane.jpg,NA,NA,NA,0,<b>That's a big great dane.</b>|<b>That great dane is big.</b>,english,NA,0,3596,You and your friend see the following:,0,2,1575059749666,NA,0,85,1,custom_slider1
953,How well does each of these sentences describe it? (Click on the slider to provide a rating),100,Fri Nov 29 2019 14:35:49 GMT-0600 (Central Standard Time),images/fish-parade-basic.png,1|0,fish,27,NA,NA,swordfish,susan,very well,very bad,yes,You also see this swordfish.,warmup/swordfish.jpg,NA,NA,NA,0,<b>That's a big fish.</b>|<b>That fish is big.</b>,english,NA,1,4788,You and your friend see the following:,0,3,1575059749666,NA,0,73,1,custom_slider1
953,How well does each of these sentences describe it? (Click on the slider to provide a rating),73,Fri Nov 29 2019 14:35:49 GMT-0600 (Central Standard Time),images/tree-parade-basic.png,1|0,trees,27,NA,NA,sequoia,susan,very well,very bad,yes,You also see this sequoia.,warmup/sequoia.png,NA,NA,NA,0,<b>That's a big sequoia.</b>|<b>That sequoia is big.</b>,english,NA,0,4153,You and your friend see the following:,0,1,1575059749666,NA,0,41,1,custom_slider2
953,How well does each of these sentences describe it? (Click on the slider to provide a rating),100,Fri Nov 29 2019 14:35:49 GMT-0600 (Central Standard Time),images/flower-parade-basic.png,1|0,flowers,27,NA,NA,dandelion,susan,very well,very bad,yes,You also see this dandelion.,warmup/dandelion.jpg,NA,NA,NA,1,<b>That's a small flower.</b>|<b>That flower is small.</b>,english,NA,1,3828,You and your friend see the following:,0,2,1575059749666,NA,0,90,1,custom_slider2
953,How well does each of these sentences describe it? (Click on the slider to provide a rating),95,Fri Nov 29 2019 14:35:49 GMT-0600 (Central Standard Time),images/dog-parade-basic.png,1|0,dogs1,27,NA,NA,chihuahua,susan,very well,very bad,yes,You also see this chihuahua.,warmup/chihuahua.jpg,NA,NA,NA,1,<b>That's a small chihuahua.</b>|<b>That chihuahua is small.</b>,english,NA,0,6043,You and your friend see the following:,0,3,1575059749666,NA,0,3,1,custom_slider2
962,How well does each of the sentences describe it? (Click on the slider to provide a rating),93,Fri Nov 29 2019 12:35:45 GMT-0800 (Pacific Standard Time),NA,NA,NA,27,no,2,NA,Sarah,very well,very bad,NA,Imagine you see this basketball.,warmup/basketball.png,NA,good survey,some_college,NA,NA,english,NA,NA,24027,NA,The basketball is green.,1,1575059745359,0.8,NA,50,The basketball is orange.,custom_warmup
962,How well does each of the sentences describe it? (Click on the slider to provide a rating),42,Fri Nov 29 2019 12:35:45 GMT-0800 (Pacific Standard Time),NA,NA,NA,27,no,2,NA,Sarah,very well,very bad,NA,Imagine you see this chair.,warmup/purple-chair.png,NA,good survey,some_college,NA,NA,english,NA,NA,5381,NA,The chair is blue.,2,1575059745359,0.8,NA,96,The chair is yellow.,custom_warmup
962,How well does each of these sentences describe it? (Click on the slider to provide a rating),60,Fri Nov 29 2019 12:35:45 GMT-0800 (Pacific Standard Time),images/dog-parade-basic.png,1|0,dogs1,27,no,2,chihuahua,Sarah,very well,very bad,NA,You also see this chihuahua.,warmup/chihuahua.jpg,NA,good survey,some_college,1,<b>That's a small chihuahua.</b>|<b>That chihuahua is small.</b>,english,NA,0,10966,You and your friend see the following:,0,1,1575059745359,0.8,0,98,1,custom_slider1
962,How well does each of these sentences describe it? (Click on the slider to provide a rating),50,Fri Nov 29 2019 12:35:45 GMT-0800 (Pacific Standard Time),images/bird-parade-basic.png,1|0,birds,27,no,2,hummingbird,Sarah,very well,very bad,NA,You also see this hummingbird.,warmup/colibri.jpg,NA,good survey,some_college,1,<b>That's a small bird.</b>|<b>That bird is small.</b>,english,NA,1,9429,You and your friend see the following:,0,2,1575059745359,0.8,0,90,1,custom_slider1
962,How well does each of these sentences describe it? (Click on the slider to provide a rating),96,Fri Nov 29 2019 12:35:45 GMT-0800 (Pacific Standard Time),images/fish-parade-basic.png,1|0,fish,27,no,2,swordfish,Sarah,very well,very bad,NA,You also see this swordfish.,warmup/swordfish.jpg,NA,good survey,some_college,0,<b>That's a big swordfish.</b>|<b>That swordfish is big.</b>,english,NA,0,44139,You and your friend see the following:,0,3,1575059745359,0.8,0,52,1,custom_slider1
962,How well does each of these sentences describe it? (Click on the slider to provide a rating),93,Fri Nov 29 2019 12:35:45 GMT-0800 (Pacific Standard Time),images/tree-parade-basic.png,1|0,trees,27,no,2,sequoia,Sarah,very well,very bad,NA,You also see this sequoia.,warmup/sequoia.png,NA,good survey,some_college,0,<b>That's a big tree.</b>|<b>That tree is big.</b>,english,NA,1,17082,You and your friend see the following:,0,1,1575059745359,0.8,0,82,1,custom_slider2
962,How well does each of these sentences describe it? (Click on the slider to provide a rating),63,Fri Nov 29 2019 12:35:45 GMT-0800 (Pacific Standard Time),images/dog-parade-basic2.png,NA,dogs2,27,no,2,great dane,Sarah,very well,very bad,NA,You also see this great dane.,warmup/great-dane.jpg,NA,good survey,some_college,0,<b>That's a big dog.</b>|<b>That dog is big.</b>,english,NA,1,11320,You and your friend see the following:,0,2,1575059745359,0.8,0,73,1,custom_slider2
962,How well does each of these sentences describe it? (Click on the slider to provide a rating),83,Fri Nov 29 2019 12:35:45 GMT-0800 (Pacific Standard Time),images/flower-parade-basic.png,1|0,flowers,27,no,2,dandelion,Sarah,very well,very bad,NA,You also see this dandelion.,warmup/dandelion.jpg,NA,good survey,some_college,1,<b>That's a small dandelion.</b>|<b>That dandelion is small.</b>,english,NA,0,9905,You and your friend see the following:,0,3,1575059745359,0.8,0,43,1,custom_slider2
995,How well does each of the sentences describe it? (Click on the slider to provide a rating),0,Fri Nov 29 2019 15:48:37 GMT-0500 (Eastern Standard Time),NA,NA,NA,27,"No, I did not encounter any problems.",1,NA,sarah,very well,very bad,yes,Imagine you see this chair.,warmup/purple-chair.png,48,NA,graduated_college,NA,NA,English,other,NA,24703,NA,The chair is blue.,1,1575060517168,0.8,NA,9,The chair is yellow.,custom_warmup
995,How well does each of the sentences describe it? (Click on the slider to provide a rating),91,Fri Nov 29 2019 15:48:37 GMT-0500 (Eastern Standard Time),NA,NA,NA,27,"No, I did not encounter any problems.",1,NA,sarah,very well,very bad,yes,Imagine you see this basketball.,warmup/basketball.png,48,NA,graduated_college,NA,NA,English,other,NA,15127,NA,The basketball is green.,2,1575060517168,0.8,NA,0,The basketball is orange.,custom_warmup
995,How well does each of these sentences describe it? (Click on the slider to provide a rating),93,Fri Nov 29 2019 15:48:37 GMT-0500 (Eastern Standard Time),images/dog-parade-basic2.png,NA,dogs2,27,"No, I did not encounter any problems.",1,great dane,sarah,very well,very bad,yes,You also see this great dane.,warmup/great-dane.jpg,48,NA,graduated_college,0,<b>That's a big great dane.</b>|<b>That great dane is big.</b>,English,other,0,32904,You and your friend see the following:,1,1,1575060517168,0.8,0,93,0,custom_slider1
995,How well does each of these sentences describe it? (Click on the slider to provide a rating),54,Fri Nov 29 2019 15:48:37 GMT-0500 (Eastern Standard Time),images/fish-parade-basic.png,0|1,fish,27,"No, I did not encounter any problems.",1,goldfish,sarah,very well,very bad,yes,You also see this goldfish.,warmup/goldfish.png,48,NA,graduated_college,1,<b>That's a small goldfish.</b>|<b>That goldfish is small.</b>,English,other,0,43608,You and your friend see the following:,1,2,1575060517168,0.8,0,89,0,custom_slider1
995,How well does each of these sentences describe it? (Click on the slider to provide a rating),98,Fri Nov 29 2019 15:48:37 GMT-0500 (Eastern Standard Time),images/flower-parade-basic.png,0|1,flowers,27,"No, I did not encounter any problems.",1,sunflower,sarah,very well,very bad,yes,You also see this sunflower.,warmup/sunflower.png,48,NA,graduated_college,0,<b>That's a big flower.</b>|<b>That flower is big.</b>,English,other,1,24704,You and your friend see the following:,1,3,1575060517168,0.8,0,98,0,custom_slider1
995,How well does each of these sentences describe it? (Click on the slider to provide a rating),88,Fri Nov 29 2019 15:48:37 GMT-0500 (Eastern Standard Time),images/dog-parade-basic.png,0|1,dogs1,27,"No, I did not encounter any problems.",1,doberman,sarah,very well,very bad,yes,You also see this doberman.,warmup/doberman.png,48,NA,graduated_college,0,<b>That's a big dog.</b>|<b>That dog is big.</b>,English,other,1,19360,You and your friend see the following:,1,1,1575060517168,0.8,0,90,0,custom_slider2
995,How well does each of these sentences describe it? (Click on the slider to provide a rating),95,Fri Nov 29 2019 15:48:37 GMT-0500 (Eastern Standard Time),images/bird-parade-basic.png,0|1,birds,27,"No, I did not encounter any problems.",1,hummingbird,sarah,very well,very bad,yes,You also see this hummingbird.,warmup/colibri.jpg,48,NA,graduated_college,1,<b>That's a small bird.</b>|<b>That bird is small.</b>,English,other,1,15168,You and your friend see the following:,1,2,1575060517168,0.8,0,95,0,custom_slider2
995,How well does each of these sentences describe it? (Click on the slider to provide a rating),80,Fri Nov 29 2019 15:48:37 GMT-0500 (Eastern Standard Time),images/tree-parade-basic.png,0|1,trees,27,"No, I did not encounter any problems.",1,bonsai,sarah,very well,very bad,yes,You also see this bonsai.,warmup/bonsai.jpg,48,NA,graduated_college,1,<b>That's a small bonsai.</b>|<b>That bonsai is small.</b>,English,other,0,19224,You and your friend see the following:,1,3,1575060517168,0.8,0,94,0,custom_slider2
955,How well does each of the sentences describe it? (Click on the slider to provide a rating),100,Fri Nov 29 2019 14:32:45 GMT-0600 (Central Standard Time),NA,NA,NA,27,No,2,NA,sarah,very well,very bad,yes,Imagine you see this basketball.,warmup/basketball.png,37,NA,graduated_high_school,NA,NA,English,male,NA,13534,NA,The basketball is green.,1,1575059565267,0.8,NA,0,The basketball is orange.,custom_warmup
955,How well does each of the sentences describe it? (Click on the slider to provide a rating),0,Fri Nov 29 2019 14:32:45 GMT-0600 (Central Standard Time),NA,NA,NA,27,No,2,NA,sarah,very well,very bad,yes,Imagine you see this chair.,warmup/purple-chair.png,37,NA,graduated_high_school,NA,NA,English,male,NA,26839,NA,The chair is blue.,2,1575059565267,0.8,NA,0,The chair is yellow.,custom_warmup
955,How well does each of these sentences describe it? (Click on the slider to provide a rating),100,Fri Nov 29 2019 14:32:45 GMT-0600 (Central Standard Time),images/dog-parade-basic2.png,NA,dogs2,27,No,2,great dane,sarah,very well,very bad,yes,You also see this great dane.,warmup/great-dane.jpg,37,NA,graduated_high_school,0,<b>That's a big dog.</b>|<b>That dog is big.</b>,English,male,1,13209,You and your friend see the following:,1,1,1575059565267,0.8,0,100,0,custom_slider1
955,How well does each of these sentences describe it? (Click on the slider to provide a rating),43,Fri Nov 29 2019 14:32:45 GMT-0600 (Central Standard Time),images/tree-parade-basic.png,0|1,trees,27,No,2,bonsai,sarah,very well,very bad,yes,You also see this bonsai.,warmup/bonsai.jpg,37,NA,graduated_high_school,1,<b>That's a small bonsai.</b>|<b>That bonsai is small.</b>,English,male,0,36206,You and your friend see the following:,1,2,1575059565267,0.8,0,44,0,custom_slider1
955,How well does each of these sentences describe it? (Click on the slider to provide a rating),58,Fri Nov 29 2019 14:32:45 GMT-0600 (Central Standard Time),images/fish-parade-basic.png,0|1,fish,27,No,2,swordfish,sarah,very well,very bad,yes,You also see this swordfish.,warmup/swordfish.jpg,37,NA,graduated_high_school,0,<b>That's a big fish.</b>|<b>That fish is big.</b>,English,male,1,15721,You and your friend see the following:,1,3,1575059565267,0.8,0,61,0,custom_slider1
955,How well does each of these sentences describe it? (Click on the slider to provide a rating),35,Fri Nov 29 2019 14:32:45 GMT-0600 (Central Standard Time),images/flower-parade-basic.png,0|1,flowers,27,No,2,sunflower,sarah,very well,very bad,yes,You also see this sunflower.,warmup/sunflower.png,37,NA,graduated_high_school,0,<b>That's a big sunflower.</b>|<b>That sunflower is big.</b>,English,male,0,24479,You and your friend see the following:,1,1,1575059565267,0.8,0,36,0,custom_slider2
955,How well does each of these sentences describe it? (Click on the slider to provide a rating),0,Fri Nov 29 2019 14:32:45 GMT-0600 (Central Standard Time),images/dog-parade-basic.png,0|1,dogs1,27,No,2,chihuahua,sarah,very well,very bad,yes,You also see this chihuahua.,warmup/chihuahua.jpg,37,NA,graduated_high_school,1,<b>That's a small chihuahua.</b>|<b>That chihuahua is small.</b>,English,male,0,18752,You and your friend see the following:,1,2,1575059565267,0.8,0,0,0,custom_slider2
955,How well does each of these sentences describe it? (Click on the slider to provide a rating),93,Fri Nov 29 2019 14:32:45 GMT-0600 (Central Standard Time),images/bird-parade-basic.png,0|1,birds,27,No,2,hummingbird,sarah,very well,very bad,yes,You also see this hummingbird.,warmup/colibri.jpg,37,NA,graduated_high_school,1,<b>That's a small bird.</b>|<b>That bird is small.</b>,English,male,1,20343,You and your friend see the following:,1,3,1575059565267,0.8,0,74,0,custom_slider2
963,How well does each of the sentences describe it? (Click on the slider to provide a rating),0,Fri Nov 29 2019 14:37:32 GMT-0600 (Central Standard Time),NA,NA,NA,27,no,2,NA,sarah,very well,very bad,yes,Imagine you see this chair.,warmup/purple-chair.png,35,thanks :),some_college,NA,NA,english,male,NA,5926,NA,The chair is blue.,1,1575059852808,0.89,NA,0,The chair is yellow.,custom_warmup
963,How well does each of the sentences describe it? (Click on the slider to provide a rating),100,Fri Nov 29 2019 14:37:32 GMT-0600 (Central Standard Time),NA,NA,NA,27,no,2,NA,sarah,very well,very bad,yes,Imagine you see this basketball.,warmup/basketball.png,35,thanks :),some_college,NA,NA,english,male,NA,3962,NA,The basketball is green.,2,1575059852808,0.89,NA,0,The basketball is orange.,custom_warmup
963,How well does each of these sentences describe it? (Click on the slider to provide a rating),100,Fri Nov 29 2019 14:37:32 GMT-0600 (Central Standard Time),images/dog-parade-basic.png,0|1,dogs1,27,no,2,chihuahua,sarah,very well,very bad,yes,You also see this chihuahua.,warmup/chihuahua.jpg,35,thanks :),some_college,1,<b>That's a small chihuahua.</b>|<b>That chihuahua is small.</b>,english,male,0,6326,You and your friend see the following:,1,1,1575059852808,0.89,0,100,0,custom_slider1
963,How well does each of these sentences describe it? (Click on the slider to provide a rating),59,Fri Nov 29 2019 14:37:32 GMT-0600 (Central Standard Time),images/tree-parade-basic.png,0|1,trees,27,no,2,sequoia,sarah,very well,very bad,yes,You also see this sequoia.,warmup/sequoia.png,35,thanks :),some_college,0,<b>That's a big tree.</b>|<b>That tree is big.</b>,english,male,1,9850,You and your friend see the following:,1,2,1575059852808,0.89,0,69,0,custom_slider1
963,How well does each of these sentences describe it? (Click on the slider to provide a rating),100,Fri Nov 29 2019 14:37:32 GMT-0600 (Central Standard Time),images/dog-parade-basic2.png,NA,dogs2,27,no,2,pug,sarah,very well,very bad,yes,You also see this pug.,warmup/pug.jpg,35,thanks :),some_college,1,<b>That's a small dog.</b>|<b>That dog is small.</b>,english,male,1,3651,You and your friend see the following:,1,3,1575059852808,0.89,0,100,0,custom_slider1
963,How well does each of these sentences describe it? (Click on the slider to provide a rating),99,Fri Nov 29 2019 14:37:32 GMT-0600 (Central Standard Time),images/bird-parade-basic.png,0|1,birds,27,no,2,eagle,sarah,very well,very bad,yes,You also see this eagle.,warmup/eagle.jpg,35,thanks :),some_college,0,<b>That's a big eagle.</b>|<b>That eagle is big.</b>,english,male,0,3815,You and your friend see the following:,1,1,1575059852808,0.89,0,70,0,custom_slider2
963,How well does each of these sentences describe it? (Click on the slider to provide a rating),100,Fri Nov 29 2019 14:37:32 GMT-0600 (Central Standard Time),images/flower-parade-basic.png,0|1,flowers,27,no,2,sunflower,sarah,very well,very bad,yes,You also see this sunflower.,warmup/sunflower.png,35,thanks :),some_college,0,<b>That's a big flower.</b>|<b>That flower is big.</b>,english,male,1,3346,You and your friend see the following:,1,2,1575059852808,0.89,0,34,0,custom_slider2
963,How well does each of these sentences describe it? (Click on the slider to provide a rating),100,Fri Nov 29 2019 14:37:32 GMT-0600 (Central Standard Time),images/fish-parade-basic.png,0|1,fish,27,no,2,goldfish,sarah,very well,very bad,yes,You also see this goldfish.,warmup/goldfish.png,35,thanks :),some_college,1,<b>That's a small goldfish.</b>|<b>That goldfish is small.</b>,english,male,0,3527,You and your friend see the following:,1,3,1575059852808,0.89,0,99,0,custom_slider2
996,How well does each of the sentences describe it? (Click on the slider to provide a rating),0,Fri Nov 29 2019 12:48:03 GMT-0800 (Pacific Standard Time),NA,NA,NA,27,NA,NA,NA,Barbara,very well,very bad,NA,Imagine you see this chair.,warmup/purple-chair.png,NA,NA,NA,NA,NA,NA,NA,NA,4281,NA,The chair is blue.,1,1575060483986,NA,NA,44,The chair is yellow.,custom_warmup
996,How well does each of the sentences describe it? (Click on the slider to provide a rating),100,Fri Nov 29 2019 12:48:03 GMT-0800 (Pacific Standard Time),NA,NA,NA,27,NA,NA,NA,Barbara,very well,very bad,NA,Imagine you see this basketball.,warmup/basketball.png,NA,NA,NA,NA,NA,NA,NA,NA,7778,NA,The basketball is green.,2,1575060483986,NA,NA,0,The basketball is orange.,custom_warmup
996,How well does each of these sentences describe it? (Click on the slider to provide a rating),58,Fri Nov 29 2019 12:48:03 GMT-0800 (Pacific Standard Time),images/flower-parade-basic.png,1|0,flowers,27,NA,NA,dandelion,Barbara,very well,very bad,NA,You also see this dandelion.,warmup/dandelion.jpg,NA,NA,NA,1,<b>That's a small flower.</b>|<b>That flower is small.</b>,NA,NA,1,4818,You and your friend see the following:,0,1,1575060483986,NA,0,58,1,custom_slider1
996,How well does each of these sentences describe it? (Click on the slider to provide a rating),60,Fri Nov 29 2019 12:48:03 GMT-0800 (Pacific Standard Time),images/tree-parade-basic.png,1|0,trees,27,NA,NA,bonsai,Barbara,very well,very bad,NA,You also see this bonsai.,warmup/bonsai.jpg,NA,NA,NA,1,<b>That's a small bonsai.</b>|<b>That bonsai is small.</b>,NA,NA,0,4622,You and your friend see the following:,0,2,1575060483986,NA,0,70,1,custom_slider1
996,How well does each of these sentences describe it? (Click on the slider to provide a rating),75,Fri Nov 29 2019 12:48:03 GMT-0800 (Pacific Standard Time),images/fish-parade-basic.png,1|0,fish,27,NA,NA,swordfish,Barbara,very well,very bad,NA,You also see this swordfish.,warmup/swordfish.jpg,NA,NA,NA,0,<b>That's a big fish.</b>|<b>That fish is big.</b>,NA,NA,1,3141,You and your friend see the following:,0,3,1575060483986,NA,0,81,1,custom_slider1
996,How well does each of these sentences describe it? (Click on the slider to provide a rating),57,Fri Nov 29 2019 12:48:03 GMT-0800 (Pacific Standard Time),images/dog-parade-basic.png,1|0,dogs1,27,NA,NA,doberman,Barbara,very well,very bad,NA,You also see this doberman.,warmup/doberman.png,NA,NA,NA,0,<b>That's a big doberman.</b>|<b>That doberman is big.</b>,NA,NA,0,4481,You and your friend see the following:,0,1,1575060483986,NA,0,55,1,custom_slider2
996,How well does each of these sentences describe it? (Click on the slider to provide a rating),33,Fri Nov 29 2019 12:48:03 GMT-0800 (Pacific Standard Time),images/dog-parade-basic2.png,NA,dogs2,27,NA,NA,great dane,Barbara,very well,very bad,NA,You also see this great dane.,warmup/great-dane.jpg,NA,NA,NA,0,<b>That's a big great dane.</b>|<b>That great dane is big.</b>,NA,NA,0,3088,You and your friend see the following:,0,2,1575060483986,NA,0,43,1,custom_slider2
996,How well does each of these sentences describe it? (Click on the slider to provide a rating),60,Fri Nov 29 2019 12:48:03 GMT-0800 (Pacific Standard Time),images/bird-parade-basic.png,1|0,birds,27,NA,NA,hummingbird,Barbara,very well,very bad,NA,You also see this hummingbird.,warmup/colibri.jpg,NA,NA,NA,1,<b>That's a small bird.</b>|<b>That bird is small.</b>,NA,NA,1,5307,You and your friend see the following:,0,3,1575060483986,NA,0,60,1,custom_slider2
1007,How well does each of the sentences describe it? (Click on the slider to provide a rating),0,Fri Nov 29 2019 12:53:08 GMT-0800 (Pacific Standard Time),NA,NA,NA,27,No problems here.,2,NA,jessica,very well,very bad,yes,Imagine you see this chair.,warmup/purple-chair.png,34,"Was a fun study, easy to navigate and well paid thank you and happy holidays!",some_college,NA,NA,English,male,NA,28729,NA,The chair is blue.,1,1575060788234,0.8,NA,10,The chair is yellow.,custom_warmup
1007,How well does each of the sentences describe it? (Click on the slider to provide a rating),100,Fri Nov 29 2019 12:53:08 GMT-0800 (Pacific Standard Time),NA,NA,NA,27,No problems here.,2,NA,jessica,very well,very bad,yes,Imagine you see this basketball.,warmup/basketball.png,34,"Was a fun study, easy to navigate and well paid thank you and happy holidays!",some_college,NA,NA,English,male,NA,6616,NA,The basketball is green.,2,1575060788234,0.8,NA,0,The basketball is orange.,custom_warmup
1007,How well does each of these sentences describe it? (Click on the slider to provide a rating),100,Fri Nov 29 2019 12:53:08 GMT-0800 (Pacific Standard Time),images/fish-parade-basic.png,1|0,fish,27,No problems here.,2,goldfish,jessica,very well,very bad,yes,You also see this goldfish.,warmup/goldfish.png,34,"Was a fun study, easy to navigate and well paid thank you and happy holidays!",some_college,1,<b>That's a small goldfish.</b>|<b>That goldfish is small.</b>,English,male,0,30173,You and your friend see the following:,0,1,1575060788234,0.8,0,95,1,custom_slider1
1007,How well does each of these sentences describe it? (Click on the slider to provide a rating),96,Fri Nov 29 2019 12:53:08 GMT-0800 (Pacific Standard Time),images/tree-parade-basic.png,1|0,trees,27,No problems here.,2,sequoia,jessica,very well,very bad,yes,You also see this sequoia.,warmup/sequoia.png,34,"Was a fun study, easy to navigate and well paid thank you and happy holidays!",some_college,0,<b>That's a big tree.</b>|<b>That tree is big.</b>,English,male,1,27191,You and your friend see the following:,0,2,1575060788234,0.8,0,90,1,custom_slider1
1007,How well does each of these sentences describe it? (Click on the slider to provide a rating),94,Fri Nov 29 2019 12:53:08 GMT-0800 (Pacific Standard Time),images/bird-parade-basic.png,1|0,birds,27,No problems here.,2,eagle,jessica,very well,very bad,yes,You also see this eagle.,warmup/eagle.jpg,34,"Was a fun study, easy to navigate and well paid thank you and happy holidays!",some_college,0,<b>That's a big bird.</b>|<b>That bird is big.</b>,English,male,1,18476,You and your friend see the following:,0,3,1575060788234,0.8,0,92,1,custom_slider1
1007,How well does each of these sentences describe it? (Click on the slider to provide a rating),95,Fri Nov 29 2019 12:53:08 GMT-0800 (Pacific Standard Time),images/dog-parade-basic.png,1|0,dogs1,27,No problems here.,2,chihuahua,jessica,very well,very bad,yes,You also see this chihuahua.,warmup/chihuahua.jpg,34,"Was a fun study, easy to navigate and well paid thank you and happy holidays!",some_college,1,<b>That's a small chihuahua.</b>|<b>That chihuahua is small.</b>,English,male,0,11372,You and your friend see the following:,0,1,1575060788234,0.8,0,84,1,custom_slider2
1007,How well does each of these sentences describe it? (Click on the slider to provide a rating),99,Fri Nov 29 2019 12:53:08 GMT-0800 (Pacific Standard Time),images/flower-parade-basic.png,1|0,flowers,27,No problems here.,2,dandelion,jessica,very well,very bad,yes,You also see this dandelion.,warmup/dandelion.jpg,34,"Was a fun study, easy to navigate and well paid thank you and happy holidays!",some_college,1,<b>That's a small dandelion.</b>|<b>That dandelion is small.</b>,English,male,0,19814,You and your friend see the following:,0,2,1575060788234,0.8,0,85,1,custom_slider2
1007,How well does each of these sentences describe it? (Click on the slider to provide a rating),95,Fri Nov 29 2019 12:53:08 GMT-0800 (Pacific Standard Time),images/dog-parade-basic2.png,NA,dogs2,27,No problems here.,2,great dane,jessica,very well,very bad,yes,You also see this great dane.,warmup/great-dane.jpg,34,"Was a fun study, easy to navigate and well paid thank you and happy holidays!",some_college,0,<b>That's a big dog.</b>|<b>That dog is big.</b>,English,male,1,8966,You and your friend see the following:,0,3,1575060788234,0.8,0,88,1,custom_slider2
958,How well does each of the sentences describe it? (Click on the slider to provide a rating),0,Fri Nov 29 2019 12:36:08 GMT-0800 (Pacific Standard Time),NA,NA,NA,27,No problems.,1,NA,Linda,very well,very bad,yes,Imagine you see this chair.,warmup/purple-chair.png,51,NA,graduated_college,NA,NA,English,female,NA,10319,NA,The chair is blue.,1,1575059768369,0.8,NA,17,The chair is yellow.,custom_warmup
958,How well does each of the sentences describe it? (Click on the slider to provide a rating),100,Fri Nov 29 2019 12:36:08 GMT-0800 (Pacific Standard Time),NA,NA,NA,27,No problems.,1,NA,Linda,very well,very bad,yes,Imagine you see this basketball.,warmup/basketball.png,51,NA,graduated_college,NA,NA,English,female,NA,8614,NA,The basketball is green.,2,1575059768369,0.8,NA,0,The basketball is orange.,custom_warmup
958,How well does each of these sentences describe it? (Click on the slider to provide a rating),100,Fri Nov 29 2019 12:36:08 GMT-0800 (Pacific Standard Time),images/tree-parade-basic.png,0|1,trees,27,No problems.,1,sequoia,Linda,very well,very bad,yes,You also see this sequoia.,warmup/sequoia.png,51,NA,graduated_college,0,<b>That's a big tree.</b>|<b>That tree is big.</b>,English,female,1,15681,You and your friend see the following:,1,1,1575059768369,0.8,0,100,0,custom_slider1
958,How well does each of these sentences describe it? (Click on the slider to provide a rating),73,Fri Nov 29 2019 12:36:08 GMT-0800 (Pacific Standard Time),images/dog-parade-basic.png,0|1,dogs1,27,No problems.,1,chihuahua,Linda,very well,very bad,yes,You also see this chihuahua.,warmup/chihuahua.jpg,51,NA,graduated_college,1,<b>That's a small chihuahua.</b>|<b>That chihuahua is small.</b>,English,female,0,10640,You and your friend see the following:,1,2,1575059768369,0.8,0,100,0,custom_slider1
958,How well does each of these sentences describe it? (Click on the slider to provide a rating),38,Fri Nov 29 2019 12:36:08 GMT-0800 (Pacific Standard Time),images/flower-parade-basic.png,0|1,flowers,27,No problems.,1,sunflower,Linda,very well,very bad,yes,You also see this sunflower.,warmup/sunflower.png,51,NA,graduated_college,0,<b>That's a big sunflower.</b>|<b>That sunflower is big.</b>,English,female,0,10832,You and your friend see the following:,1,3,1575059768369,0.8,0,30,0,custom_slider1
958,How well does each of these sentences describe it? (Click on the slider to provide a rating),79,Fri Nov 29 2019 12:36:08 GMT-0800 (Pacific Standard Time),images/dog-parade-basic2.png,NA,dogs2,27,No problems.,1,great dane,Linda,very well,very bad,yes,You also see this great dane.,warmup/great-dane.jpg,51,NA,graduated_college,0,<b>That's a big dog.</b>|<b>That dog is big.</b>,English,female,1,9591,You and your friend see the following:,1,1,1575059768369,0.8,0,83,0,custom_slider2
958,How well does each of these sentences describe it? (Click on the slider to provide a rating),61,Fri Nov 29 2019 12:36:08 GMT-0800 (Pacific Standard Time),images/bird-parade-basic.png,0|1,birds,27,No problems.,1,hummingbird,Linda,very well,very bad,yes,You also see this hummingbird.,warmup/colibri.jpg,51,NA,graduated_college,1,<b>That's a small hummingbird.</b>|<b>That hummingbird is small.</b>,English,female,0,8996,You and your friend see the following:,1,2,1575059768369,0.8,0,64,0,custom_slider2
958,How well does each of these sentences describe it? (Click on the slider to provide a rating),81,Fri Nov 29 2019 12:36:08 GMT-0800 (Pacific Standard Time),images/fish-parade-basic.png,0|1,fish,27,No problems.,1,goldfish,Linda,very well,very bad,yes,You also see this goldfish.,warmup/goldfish.png,51,NA,graduated_college,1,<b>That's a small fish.</b>|<b>That fish is small.</b>,English,female,1,9397,You and your friend see the following:,1,3,1575059768369,0.8,0,81,0,custom_slider2
997,How well does each of the sentences describe it? (Click on the slider to provide a rating),0,Fri Nov 29 2019 19:50:45 GMT-0800 (Pacific Standard Time),NA,NA,NA,27,Nothing,2,NA,Mary,very well,very bad,NA,Imagine you see this chair.,warmup/purple-chair.png,NA,NA,NA,NA,NA,English,NA,NA,14208,NA,The chair is blue.,1,1575085845551,1.1,NA,98,The chair is yellow.,custom_warmup
997,How well does each of the sentences describe it? (Click on the slider to provide a rating),100,Fri Nov 29 2019 19:50:45 GMT-0800 (Pacific Standard Time),NA,NA,NA,27,Nothing,2,NA,Mary,very well,very bad,NA,Imagine you see this basketball.,warmup/basketball.png,NA,NA,NA,NA,NA,English,NA,NA,7222,NA,The basketball is green.,2,1575085845551,1.1,NA,2,The basketball is orange.,custom_warmup
997,How well does each of these sentences describe it? (Click on the slider to provide a rating),74,Fri Nov 29 2019 19:50:45 GMT-0800 (Pacific Standard Time),images/bird-parade-basic.png,0|1,birds,27,Nothing,2,eagle,Mary,very well,very bad,NA,You also see this eagle.,warmup/eagle.jpg,NA,NA,NA,0,<b>That's a big eagle.</b>|<b>That eagle is big.</b>,English,NA,0,29522,You and your friend see the following:,1,1,1575085845551,1.1,0,42,0,custom_slider1
997,How well does each of these sentences describe it? (Click on the slider to provide a rating),60,Fri Nov 29 2019 19:50:45 GMT-0800 (Pacific Standard Time),images/fish-parade-basic.png,0|1,fish,27,Nothing,2,goldfish,Mary,very well,very bad,NA,You also see this goldfish.,warmup/goldfish.png,NA,NA,NA,1,<b>That's a small fish.</b>|<b>That fish is small.</b>,English,NA,1,10778,You and your friend see the following:,1,2,1575085845551,1.1,0,28,0,custom_slider1
997,How well does each of these sentences describe it? (Click on the slider to provide a rating),69,Fri Nov 29 2019 19:50:45 GMT-0800 (Pacific Standard Time),images/flower-parade-basic.png,0|1,flowers,27,Nothing,2,dandelion,Mary,very well,very bad,NA,You also see this dandelion.,warmup/dandelion.jpg,NA,NA,NA,1,<b>That's a small flower.</b>|<b>That flower is small.</b>,English,NA,1,14348,You and your friend see the following:,1,3,1575085845551,1.1,0,28,0,custom_slider1
997,How well does each of these sentences describe it? (Click on the slider to provide a rating),42,Fri Nov 29 2019 19:50:45 GMT-0800 (Pacific Standard Time),images/tree-parade-basic.png,0|1,trees,27,Nothing,2,sequoia,Mary,very well,very bad,NA,You also see this sequoia.,warmup/sequoia.png,NA,NA,NA,0,<b>That's a big tree.</b>|<b>That tree is big.</b>,English,NA,1,11832,You and your friend see the following:,1,1,1575085845551,1.1,0,21,0,custom_slider2
997,How well does each of these sentences describe it? (Click on the slider to provide a rating),74,Fri Nov 29 2019 19:50:45 GMT-0800 (Pacific Standard Time),images/dog-parade-basic2.png,NA,dogs2,27,Nothing,2,pug,Mary,very well,very bad,NA,You also see this pug.,warmup/pug.jpg,NA,NA,NA,1,<b>That's a small pug.</b>|<b>That pug is small.</b>,English,NA,0,13203,You and your friend see the following:,1,2,1575085845551,1.1,0,50,0,custom_slider2
997,How well does each of these sentences describe it? (Click on the slider to provide a rating),80,Fri Nov 29 2019 19:50:45 GMT-0800 (Pacific Standard Time),images/dog-parade-basic.png,0|1,dogs1,27,Nothing,2,doberman,Mary,very well,very bad,NA,You also see this doberman.,warmup/doberman.png,NA,NA,NA,0,<b>That's a big doberman.</b>|<b>That doberman is big.</b>,English,NA,0,7470,You and your friend see the following:,1,3,1575085845551,1.1,0,43,0,custom_slider2
1009,How well does each of the sentences describe it? (Click on the slider to provide a rating),77,Sat Nov 30 2019 02:26:13 GMT+0530 (India Standard Time),NA,NA,NA,27,No any problems of this study,2,NA,Mary,very well,very bad,yes,Imagine you see this chair.,warmup/purple-chair.png,32,very interesting,graduated_college,NA,NA,English,male,NA,5219,NA,The chair is blue.,1,1575060973257,20,NA,89,The chair is yellow.,custom_warmup
1009,How well does each of the sentences describe it? (Click on the slider to provide a rating),72,Sat Nov 30 2019 02:26:13 GMT+0530 (India Standard Time),NA,NA,NA,27,No any problems of this study,2,NA,Mary,very well,very bad,yes,Imagine you see this basketball.,warmup/basketball.png,32,very interesting,graduated_college,NA,NA,English,male,NA,3479,NA,The basketball is green.,2,1575060973257,20,NA,90,The basketball is orange.,custom_warmup
1009,How well does each of these sentences describe it? (Click on the slider to provide a rating),89,Sat Nov 30 2019 02:26:13 GMT+0530 (India Standard Time),images/bird-parade-basic.png,0|1,birds,27,No any problems of this study,2,eagle,Mary,very well,very bad,yes,You also see this eagle.,warmup/eagle.jpg,32,very interesting,graduated_college,0,<b>That's a big eagle.</b>|<b>That eagle is big.</b>,English,male,0,7672,You and your friend see the following:,1,1,1575060973257,20,0,72,0,custom_slider1
1009,How well does each of these sentences describe it? (Click on the slider to provide a rating),87,Sat Nov 30 2019 02:26:13 GMT+0530 (India Standard Time),images/flower-parade-basic.png,0|1,flowers,27,No any problems of this study,2,dandelion,Mary,very well,very bad,yes,You also see this dandelion.,warmup/dandelion.jpg,32,very interesting,graduated_college,1,<b>That's a small flower.</b>|<b>That flower is small.</b>,English,male,1,3502,You and your friend see the following:,1,2,1575060973257,20,0,80,0,custom_slider1
1009,How well does each of these sentences describe it? (Click on the slider to provide a rating),70,Sat Nov 30 2019 02:26:13 GMT+0530 (India Standard Time),images/dog-parade-basic.png,0|1,dogs1,27,No any problems of this study,2,chihuahua,Mary,very well,very bad,yes,You also see this chihuahua.,warmup/chihuahua.jpg,32,very interesting,graduated_college,1,<b>That's a small chihuahua.</b>|<b>That chihuahua is small.</b>,English,male,0,5530,You and your friend see the following:,1,3,1575060973257,20,0,91,0,custom_slider1
1009,How well does each of these sentences describe it? (Click on the slider to provide a rating),87,Sat Nov 30 2019 02:26:13 GMT+0530 (India Standard Time),images/fish-parade-basic.png,0|1,fish,27,No any problems of this study,2,swordfish,Mary,very well,very bad,yes,You also see this swordfish.,warmup/swordfish.jpg,32,very interesting,graduated_college,0,<b>That's a big swordfish.</b>|<b>That swordfish is big.</b>,English,male,0,3254,You and your friend see the following:,1,1,1575060973257,20,0,75,0,custom_slider2
1009,How well does each of these sentences describe it? (Click on the slider to provide a rating),89,Sat Nov 30 2019 02:26:13 GMT+0530 (India Standard Time),images/tree-parade-basic.png,0|1,trees,27,No any problems of this study,2,bonsai,Mary,very well,very bad,yes,You also see this bonsai.,warmup/bonsai.jpg,32,very interesting,graduated_college,1,<b>That's a small tree.</b>|<b>That tree is small.</b>,English,male,1,5633,You and your friend see the following:,1,2,1575060973257,20,0,73,0,custom_slider2
1009,How well does each of these sentences describe it? (Click on the slider to provide a rating),74,Sat Nov 30 2019 02:26:13 GMT+0530 (India Standard Time),images/dog-parade-basic2.png,NA,dogs2,27,No any problems of this study,2,great dane,Mary,very well,very bad,yes,You also see this great dane.,warmup/great-dane.jpg,32,very interesting,graduated_college,0,<b>That's a big dog.</b>|<b>That dog is big.</b>,English,male,1,4967,You and your friend see the following:,1,3,1575060973257,20,0,91,0,custom_slider2
964,How well does each of the sentences describe it? (Click on the slider to provide a rating),100,Fri Nov 29 2019 14:35:17 GMT-0600 (Central Standard Time),NA,NA,NA,27,no,1,NA,Susan,very well,very bad,yes,Imagine you see this basketball.,warmup/basketball.png,37,NA,graduated_high_school,NA,NA,English,female,NA,14128,NA,The basketball is green.,1,1575059717622,0.8,NA,0,The basketball is orange.,custom_warmup
964,How well does each of the sentences describe it? (Click on the slider to provide a rating),0,Fri Nov 29 2019 14:35:17 GMT-0600 (Central Standard Time),NA,NA,NA,27,no,1,NA,Susan,very well,very bad,yes,Imagine you see this chair.,warmup/purple-chair.png,37,NA,graduated_high_school,NA,NA,English,female,NA,18350,NA,The chair is blue.,2,1575059717622,0.8,NA,0,The chair is yellow.,custom_warmup
964,How well does each of these sentences describe it? (Click on the slider to provide a rating),97,Fri Nov 29 2019 14:35:17 GMT-0600 (Central Standard Time),images/flower-parade-basic.png,0|1,flowers,27,no,1,sunflower,Susan,very well,very bad,yes,You also see this sunflower.,warmup/sunflower.png,37,NA,graduated_high_school,0,<b>That's a big sunflower.</b>|<b>That sunflower is big.</b>,English,female,0,17705,You and your friend see the following:,1,1,1575059717622,0.8,0,99,0,custom_slider1
964,How well does each of these sentences describe it? (Click on the slider to provide a rating),100,Fri Nov 29 2019 14:35:17 GMT-0600 (Central Standard Time),images/bird-parade-basic.png,0|1,birds,27,no,1,hummingbird,Susan,very well,very bad,yes,You also see this hummingbird.,warmup/colibri.jpg,37,NA,graduated_high_school,1,<b>That's a small bird.</b>|<b>That bird is small.</b>,English,female,1,9792,You and your friend see the following:,1,2,1575059717622,0.8,0,100,0,custom_slider1
964,How well does each of these sentences describe it? (Click on the slider to provide a rating),100,Fri Nov 29 2019 14:35:17 GMT-0600 (Central Standard Time),images/tree-parade-basic.png,0|1,trees,27,no,1,bonsai,Susan,very well,very bad,yes,You also see this bonsai.,warmup/bonsai.jpg,37,NA,graduated_high_school,1,<b>That's a small tree.</b>|<b>That tree is small.</b>,English,female,1,11728,You and your friend see the following:,1,3,1575059717622,0.8,0,100,0,custom_slider1
964,How well does each of these sentences describe it? (Click on the slider to provide a rating),100,Fri Nov 29 2019 14:35:17 GMT-0600 (Central Standard Time),images/dog-parade-basic2.png,NA,dogs2,27,no,1,great dane,Susan,very well,very bad,yes,You also see this great dane.,warmup/great-dane.jpg,37,NA,graduated_high_school,0,<b>That's a big great dane.</b>|<b>That great dane is big.</b>,English,female,0,10288,You and your friend see the following:,1,1,1575059717622,0.8,0,100,0,custom_slider2
964,How well does each of these sentences describe it? (Click on the slider to provide a rating),100,Fri Nov 29 2019 14:35:17 GMT-0600 (Central Standard Time),images/fish-parade-basic.png,0|1,fish,27,no,1,swordfish,Susan,very well,very bad,yes,You also see this swordfish.,warmup/swordfish.jpg,37,NA,graduated_high_school,0,<b>That's a big swordfish.</b>|<b>That swordfish is big.</b>,English,female,0,14064,You and your friend see the following:,1,2,1575059717622,0.8,0,100,0,custom_slider2
964,How well does each of these sentences describe it? (Click on the slider to provide a rating),100,Fri Nov 29 2019 14:35:17 GMT-0600 (Central Standard Time),images/dog-parade-basic.png,0|1,dogs1,27,no,1,chihuahua,Susan,very well,very bad,yes,You also see this chihuahua.,warmup/chihuahua.jpg,37,NA,graduated_high_school,1,<b>That's a small dog.</b>|<b>That dog is small.</b>,English,female,1,19039,You and your friend see the following:,1,3,1575059717622,0.8,0,100,0,custom_slider2
998,How well does each of the sentences describe it? (Click on the slider to provide a rating),100,Fri Nov 29 2019 19:52:32 GMT-0800 (Pacific Standard Time),NA,NA,NA,27,No,1,NA,Jennifer,very well,very bad,yes,Imagine you see this basketball.,warmup/basketball.png,29,Good,graduated_college,NA,NA,English,male,NA,5136,NA,The basketball is green.,1,1575085952642,1,NA,0,The basketball is orange.,custom_warmup
998,How well does each of the sentences describe it? (Click on the slider to provide a rating),0,Fri Nov 29 2019 19:52:32 GMT-0800 (Pacific Standard Time),NA,NA,NA,27,No,1,NA,Jennifer,very well,very bad,yes,Imagine you see this chair.,warmup/purple-chair.png,29,Good,graduated_college,NA,NA,English,male,NA,8567,NA,The chair is blue.,2,1575085952642,1,NA,100,The chair is yellow.,custom_warmup
998,How well does each of these sentences describe it? (Click on the slider to provide a rating),56,Fri Nov 29 2019 19:52:32 GMT-0800 (Pacific Standard Time),images/fish-parade-basic.png,0|1,fish,27,No,1,goldfish,Jennifer,very well,very bad,yes,You also see this goldfish.,warmup/goldfish.png,29,Good,graduated_college,1,<b>That's a small fish.</b>|<b>That fish is small.</b>,English,male,1,6981,You and your friend see the following:,1,1,1575085952642,1,0,68,0,custom_slider1
998,How well does each of these sentences describe it? (Click on the slider to provide a rating),49,Fri Nov 29 2019 19:52:32 GMT-0800 (Pacific Standard Time),images/dog-parade-basic.png,0|1,dogs1,27,No,1,doberman,Jennifer,very well,very bad,yes,You also see this doberman.,warmup/doberman.png,29,Good,graduated_college,0,<b>That's a big dog.</b>|<b>That dog is big.</b>,English,male,1,4884,You and your friend see the following:,1,2,1575085952642,1,0,78,0,custom_slider1
998,How well does each of these sentences describe it? (Click on the slider to provide a rating),54,Fri Nov 29 2019 19:52:32 GMT-0800 (Pacific Standard Time),images/flower-parade-basic.png,0|1,flowers,27,No,1,dandelion,Jennifer,very well,very bad,yes,You also see this dandelion.,warmup/dandelion.jpg,29,Good,graduated_college,1,<b>That's a small flower.</b>|<b>That flower is small.</b>,English,male,1,10087,You and your friend see the following:,1,3,1575085952642,1,0,54,0,custom_slider1
998,How well does each of these sentences describe it? (Click on the slider to provide a rating),30,Fri Nov 29 2019 19:52:32 GMT-0800 (Pacific Standard Time),images/dog-parade-basic2.png,NA,dogs2,27,No,1,pug,Jennifer,very well,very bad,yes,You also see this pug.,warmup/pug.jpg,29,Good,graduated_college,1,<b>That's a small pug.</b>|<b>That pug is small.</b>,English,male,0,4146,You and your friend see the following:,1,1,1575085952642,1,0,79,0,custom_slider2
998,How well does each of these sentences describe it? (Click on the slider to provide a rating),64,Fri Nov 29 2019 19:52:32 GMT-0800 (Pacific Standard Time),images/tree-parade-basic.png,0|1,trees,27,No,1,sequoia,Jennifer,very well,very bad,yes,You also see this sequoia.,warmup/sequoia.png,29,Good,graduated_college,0,<b>That's a big sequoia.</b>|<b>That sequoia is big.</b>,English,male,0,6880,You and your friend see the following:,1,2,1575085952642,1,0,28,0,custom_slider2
998,How well does each of these sentences describe it? (Click on the slider to provide a rating),47,Fri Nov 29 2019 19:52:32 GMT-0800 (Pacific Standard Time),images/bird-parade-basic.png,0|1,birds,27,No,1,eagle,Jennifer,very well,very bad,yes,You also see this eagle.,warmup/eagle.jpg,29,Good,graduated_college,0,<b>That's a big eagle.</b>|<b>That eagle is big.</b>,English,male,0,4096,You and your friend see the following:,1,3,1575085952642,1,0,79,0,custom_slider2
1008,How well does each of the sentences describe it? (Click on the slider to provide a rating),100,Fri Nov 29 2019 12:56:13 GMT-0800 (Pacific Standard Time),NA,NA,NA,27,No,1,NA,Susan,very well,very bad,yes,Imagine you see this basketball.,warmup/basketball.png,29,Good,graduated_college,NA,NA,English,male,NA,10743,NA,The basketball is green.,1,1575060973230,1,NA,4,The basketball is orange.,custom_warmup
1008,How well does each of the sentences describe it? (Click on the slider to provide a rating),0,Fri Nov 29 2019 12:56:13 GMT-0800 (Pacific Standard Time),NA,NA,NA,27,No,1,NA,Susan,very well,very bad,yes,Imagine you see this chair.,warmup/purple-chair.png,29,Good,graduated_college,NA,NA,English,male,NA,10375,NA,The chair is blue.,2,1575060973230,1,NA,99,The chair is yellow.,custom_warmup
1008,How well does each of these sentences describe it? (Click on the slider to provide a rating),58,Fri Nov 29 2019 12:56:13 GMT-0800 (Pacific Standard Time),images/tree-parade-basic.png,0|1,trees,27,No,1,sequoia,Susan,very well,very bad,yes,You also see this sequoia.,warmup/sequoia.png,29,Good,graduated_college,0,<b>That's a big tree.</b>|<b>That tree is big.</b>,English,male,1,13664,You and your friend see the following:,1,1,1575060973230,1,0,33,0,custom_slider1
1008,How well does each of these sentences describe it? (Click on the slider to provide a rating),65,Fri Nov 29 2019 12:56:13 GMT-0800 (Pacific Standard Time),images/fish-parade-basic.png,0|1,fish,27,No,1,goldfish,Susan,very well,very bad,yes,You also see this goldfish.,warmup/goldfish.png,29,Good,graduated_college,1,<b>That's a small fish.</b>|<b>That fish is small.</b>,English,male,1,20911,You and your friend see the following:,1,2,1575060973230,1,0,27,0,custom_slider1
1008,How well does each of these sentences describe it? (Click on the slider to provide a rating),42,Fri Nov 29 2019 12:56:13 GMT-0800 (Pacific Standard Time),images/bird-parade-basic.png,0|1,birds,27,No,1,eagle,Susan,very well,very bad,yes,You also see this eagle.,warmup/eagle.jpg,29,Good,graduated_college,0,<b>That's a big eagle.</b>|<b>That eagle is big.</b>,English,male,0,3512,You and your friend see the following:,1,3,1575060973230,1,0,76,0,custom_slider1
1008,How well does each of these sentences describe it? (Click on the slider to provide a rating),25,Fri Nov 29 2019 12:56:13 GMT-0800 (Pacific Standard Time),images/flower-parade-basic.png,0|1,flowers,27,No,1,dandelion,Susan,very well,very bad,yes,You also see this dandelion.,warmup/dandelion.jpg,29,Good,graduated_college,1,<b>That's a small flower.</b>|<b>That flower is small.</b>,English,male,1,6568,You and your friend see the following:,1,1,1575060973230,1,0,65,0,custom_slider2
1008,How well does each of these sentences describe it? (Click on the slider to provide a rating),47,Fri Nov 29 2019 12:56:13 GMT-0800 (Pacific Standard Time),images/dog-parade-basic2.png,NA,dogs2,27,No,1,pug,Susan,very well,very bad,yes,You also see this pug.,warmup/pug.jpg,29,Good,graduated_college,1,<b>That's a small pug.</b>|<b>That pug is small.</b>,English,male,0,18064,You and your friend see the following:,1,2,1575060973230,1,0,16,0,custom_slider2
1008,How well does each of these sentences describe it? (Click on the slider to provide a rating),53,Fri Nov 29 2019 12:56:13 GMT-0800 (Pacific Standard Time),images/dog-parade-basic.png,0|1,dogs1,27,No,1,doberman,Susan,very well,very bad,yes,You also see this doberman.,warmup/doberman.png,29,Good,graduated_college,0,<b>That's a big doberman.</b>|<b>That doberman is big.</b>,English,male,0,7832,You and your friend see the following:,1,3,1575060973230,1,0,35,0,custom_slider2
1013,How well does each of the sentences describe it? (Click on the slider to provide a rating),100,Fri Nov 29 2019 14:59:37 GMT-0600 (Central Standard Time),NA,NA,NA,27,No,2,NA,elizabeth,very well,very bad,yes,Imagine you see this basketball.,warmup/basketball.png,31,Thank you!,some_college,NA,NA,English,female,NA,8749,NA,The basketball is green.,1,1575061177532,0.8,NA,0,The basketball is orange.,custom_warmup
1013,How well does each of the sentences describe it? (Click on the slider to provide a rating),0,Fri Nov 29 2019 14:59:37 GMT-0600 (Central Standard Time),NA,NA,NA,27,No,2,NA,elizabeth,very well,very bad,yes,Imagine you see this chair.,warmup/purple-chair.png,31,Thank you!,some_college,NA,NA,English,female,NA,5677,NA,The chair is blue.,2,1575061177532,0.8,NA,0,The chair is yellow.,custom_warmup
1013,How well does each of these sentences describe it? (Click on the slider to provide a rating),82,Fri Nov 29 2019 14:59:37 GMT-0600 (Central Standard Time),images/fish-parade-basic.png,1|0,fish,27,No,2,goldfish,elizabeth,very well,very bad,yes,You also see this goldfish.,warmup/goldfish.png,31,Thank you!,some_college,1,<b>That's a small goldfish.</b>|<b>That goldfish is small.</b>,English,female,0,16223,You and your friend see the following:,0,1,1575061177532,0.8,0,86,1,custom_slider1
1013,How well does each of these sentences describe it? (Click on the slider to provide a rating),79,Fri Nov 29 2019 14:59:37 GMT-0600 (Central Standard Time),images/dog-parade-basic2.png,NA,dogs2,27,No,2,pug,elizabeth,very well,very bad,yes,You also see this pug.,warmup/pug.jpg,31,Thank you!,some_college,1,<b>That's a small pug.</b>|<b>That pug is small.</b>,English,female,0,7133,You and your friend see the following:,0,2,1575061177532,0.8,0,81,1,custom_slider1
1013,How well does each of these sentences describe it? (Click on the slider to provide a rating),63,Fri Nov 29 2019 14:59:37 GMT-0600 (Central Standard Time),images/dog-parade-basic.png,1|0,dogs1,27,No,2,doberman,elizabeth,very well,very bad,yes,You also see this doberman.,warmup/doberman.png,31,Thank you!,some_college,0,<b>That's a big doberman.</b>|<b>That doberman is big.</b>,English,female,0,7018,You and your friend see the following:,0,3,1575061177532,0.8,0,74,1,custom_slider1
1013,How well does each of these sentences describe it? (Click on the slider to provide a rating),61,Fri Nov 29 2019 14:59:37 GMT-0600 (Central Standard Time),images/flower-parade-basic.png,1|0,flowers,27,No,2,dandelion,elizabeth,very well,very bad,yes,You also see this dandelion.,warmup/dandelion.jpg,31,Thank you!,some_college,1,<b>That's a small flower.</b>|<b>That flower is small.</b>,English,female,1,6807,You and your friend see the following:,0,1,1575061177532,0.8,0,75,1,custom_slider2
1013,How well does each of these sentences describe it? (Click on the slider to provide a rating),65,Fri Nov 29 2019 14:59:37 GMT-0600 (Central Standard Time),images/tree-parade-basic.png,1|0,trees,27,No,2,sequoia,elizabeth,very well,very bad,yes,You also see this sequoia.,warmup/sequoia.png,31,Thank you!,some_college,0,<b>That's a big tree.</b>|<b>That tree is big.</b>,English,female,1,2290,You and your friend see the following:,0,2,1575061177532,0.8,0,78,1,custom_slider2
1013,How well does each of these sentences describe it? (Click on the slider to provide a rating),64,Fri Nov 29 2019 14:59:37 GMT-0600 (Central Standard Time),images/bird-parade-basic.png,1|0,birds,27,No,2,eagle,elizabeth,very well,very bad,yes,You also see this eagle.,warmup/eagle.jpg,31,Thank you!,some_college,0,<b>That's a big bird.</b>|<b>That bird is big.</b>,English,female,1,4642,You and your friend see the following:,0,3,1575061177532,0.8,0,77,1,custom_slider2
967,How well does each of the sentences describe it? (Click on the slider to provide a rating),100,Fri Nov 29 2019 14:37:52 GMT-0600 (Central Standard Time),NA,NA,NA,27,NA,NA,NA,jessica,very well,very bad,yes,Imagine you see this basketball.,warmup/basketball.png,NA,NA,NA,NA,NA,english,NA,NA,3103,NA,The basketball is green.,1,1575059872883,NA,NA,0,The basketball is orange.,custom_warmup
967,How well does each of the sentences describe it? (Click on the slider to provide a rating),0,Fri Nov 29 2019 14:37:52 GMT-0600 (Central Standard Time),NA,NA,NA,27,NA,NA,NA,jessica,very well,very bad,yes,Imagine you see this chair.,warmup/purple-chair.png,NA,NA,NA,NA,NA,english,NA,NA,2651,NA,The chair is blue.,2,1575059872883,NA,NA,0,The chair is yellow.,custom_warmup
967,How well does each of these sentences describe it? (Click on the slider to provide a rating),68,Fri Nov 29 2019 14:37:52 GMT-0600 (Central Standard Time),images/dog-parade-basic2.png,NA,dogs2,27,NA,NA,great dane,jessica,very well,very bad,yes,You also see this great dane.,warmup/great-dane.jpg,NA,NA,NA,0,<b>That's a big great dane.</b>|<b>That great dane is big.</b>,english,NA,0,5072,You and your friend see the following:,1,1,1575059872883,NA,0,89,0,custom_slider1
967,How well does each of these sentences describe it? (Click on the slider to provide a rating),100,Fri Nov 29 2019 14:37:52 GMT-0600 (Central Standard Time),images/fish-parade-basic.png,0|1,fish,27,NA,NA,goldfish,jessica,very well,very bad,yes,You also see this goldfish.,warmup/goldfish.png,NA,NA,NA,1,<b>That's a small goldfish.</b>|<b>That goldfish is small.</b>,english,NA,0,2970,You and your friend see the following:,1,2,1575059872883,NA,0,100,0,custom_slider1
967,How well does each of these sentences describe it? (Click on the slider to provide a rating),60,Fri Nov 29 2019 14:37:52 GMT-0600 (Central Standard Time),images/dog-parade-basic.png,0|1,dogs1,27,NA,NA,doberman,jessica,very well,very bad,yes,You also see this doberman.,warmup/doberman.png,NA,NA,NA,0,<b>That's a big dog.</b>|<b>That dog is big.</b>,english,NA,1,4484,You and your friend see the following:,1,3,1575059872883,NA,0,74,0,custom_slider1
967,How well does each of these sentences describe it? (Click on the slider to provide a rating),58,Fri Nov 29 2019 14:37:52 GMT-0600 (Central Standard Time),images/flower-parade-basic.png,0|1,flowers,27,NA,NA,dandelion,jessica,very well,very bad,yes,You also see this dandelion.,warmup/dandelion.jpg,NA,NA,NA,1,<b>That's a small flower.</b>|<b>That flower is small.</b>,english,NA,1,5243,You and your friend see the following:,1,1,1575059872883,NA,0,78,0,custom_slider2
967,How well does each of these sentences describe it? (Click on the slider to provide a rating),36,Fri Nov 29 2019 14:37:52 GMT-0600 (Central Standard Time),images/bird-parade-basic.png,0|1,birds,27,NA,NA,eagle,jessica,very well,very bad,yes,You also see this eagle.,warmup/eagle.jpg,NA,NA,NA,0,<b>That's a big eagle.</b>|<b>That eagle is big.</b>,english,NA,0,4058,You and your friend see the following:,1,2,1575059872883,NA,0,85,0,custom_slider2
